Gait Up - Physilog data export
Created on: 0000-00-05 02:03:01
Total data points: 17922

Time [128 hz],Gyro [128 hz],,,Accel [128 hz],,,Event [128 hz],Quaternion [128 hz],,,,
Time,Gyro X,Gyro Y,Gyro Z,Accel X,Accel Y,Accel Z,Event,Quat W,Quat X,Quat Y,Quat Z,
[s],[deg/s],[deg/s],[deg/s],[g],[g],[g],[],[],[],[],[],
80.00781,4.45618,-4.65057,-173.18527,0.01318,0.19379,1.02161,,0.66443,-0.55256,0.50313,-0.00877,
80.01563,4.37393,-4.68796,-173.14041,0.02246,0.19244,1.00940,,0.66467,-0.55821,0.49632,-0.01658,
80.02344,4.29169,-4.57581,-173.06564,0.00787,0.19171,1.02020,,0.66482,-0.56378,0.48945,-0.02439,
80.03125,4.35898,-4.79263,-173.20770,0.02679,0.19360,1.01563,,0.66489,-0.56928,0.48250,-0.03220,
80.03906,4.41879,-4.62814,-173.06564,0.01422,0.19238,1.01337,,0.66485,-0.57469,0.47550,-0.04000,
80.04688,4.34402,-4.80011,-173.26752,0.01965,0.19287,1.01715,,0.66473,-0.58003,0.46841,-0.04780,
80.05469,4.28421,-4.79263,-173.26004,0.02936,0.19281,1.00958,,0.66451,-0.58529,0.46126,-0.05560,
80.06250,4.42627,-4.53842,-173.00583,0.00787,0.19250,1.01660,,0.66420,-0.59046,0.45407,-0.06339,
80.07031,4.31412,-4.83749,-173.24509,0.03094,0.19373,1.01324,,0.66380,-0.59555,0.44679,-0.07117,
80.07813,4.36646,-4.53094,-172.93854,0.01117,0.19238,1.01508,,0.66330,-0.60055,0.43948,-0.07894,
80.08594,4.35150,-4.55338,-173.06564,0.00867,0.19244,1.02014,,0.66271,-0.60546,0.43211,-0.08671,
80.09375,4.35898,-4.72534,-173.15536,0.02484,0.19128,1.00787,,0.66203,-0.61030,0.42466,-0.09447,
80.10156,4.41879,-4.58328,-172.98340,0.00708,0.19226,1.01941,,0.66125,-0.61504,0.41716,-0.10221,
80.10938,4.37393,-4.74030,-173.18527,0.02307,0.19275,1.01630,,0.66039,-0.61970,0.40960,-0.10994,
80.11719,4.29916,-4.56085,-172.97592,0.01776,0.19183,1.01062,,0.65943,-0.62427,0.40199,-0.11766,
80.12500,4.39636,-4.71039,-173.14789,0.01563,0.19196,1.02020,,0.65838,-0.62876,0.39432,-0.12536,
80.13281,4.35898,-4.85992,-173.20770,0.03040,0.19275,1.01239,,0.65724,-0.63316,0.38658,-0.13305,
80.14063,4.41879,-4.59824,-172.95349,0.01080,0.19031,1.01508,,0.65600,-0.63746,0.37881,-0.14072,
80.14844,4.36646,-4.83002,-173.15536,0.02765,0.19391,1.01398,,0.65468,-0.64168,0.37097,-0.14837,
80.15625,4.26926,-4.65805,-173.08060,0.02405,0.19073,1.01050,,0.65326,-0.64582,0.36309,-0.15600,
80.16406,4.32159,-4.66553,-172.96844,0.00812,0.19153,1.01794,,0.65175,-0.64985,0.35517,-0.16361,
80.17188,4.29169,-4.81506,-173.06564,0.02850,0.19135,1.01093,,0.65015,-0.65381,0.34719,-0.17119,
80.17969,4.34402,-4.54590,-172.93106,0.01538,0.19055,1.01202,,0.64845,-0.65766,0.33918,-0.17876,
80.18750,4.20944,-4.80011,-173.11050,0.01813,0.19141,1.01746,,0.64667,-0.66143,0.33110,-0.18630,
80.19531,4.21692,-4.65805,-173.11050,0.02032,0.19116,1.01245,,0.64478,-0.66510,0.32298,-0.19383,
80.20313,4.35150,-4.54590,-172.88620,0.00885,0.19092,1.01678,,0.64282,-0.66868,0.31484,-0.20132,
80.21094,4.40384,-4.91226,-173.11798,0.02802,0.19281,1.01306,,0.64077,-0.67216,0.30662,-0.20879,
80.21875,4.27673,-4.57581,-172.99088,0.01349,0.19098,1.01202,,0.63862,-0.67555,0.29839,-0.21623,
80.22656,4.26926,-4.52347,-173.11798,0.00732,0.19171,1.01764,,0.63638,-0.67885,0.29011,-0.22366,
80.23438,4.24683,-4.97955,-173.07312,0.02747,0.19171,1.01257,,0.63406,-0.68205,0.28177,-0.23103,
80.24219,4.47861,-4.59824,-173.01331,0.00708,0.19165,1.01727,,0.63165,-0.68515,0.27342,-0.23839,
80.25000,4.33655,-4.83749,-173.19275,0.01874,0.19165,1.01526,,0.62915,-0.68816,0.26500,-0.24571,
80.25781,4.23935,-4.63562,-173.04321,0.01947,0.19098,1.01361,,0.62656,-0.69108,0.25657,-0.25300,
80.26563,4.33655,-4.74777,-173.13293,0.01361,0.19177,1.01868,,0.62388,-0.69389,0.24810,-0.26026,
80.27344,4.35898,-4.85245,-173.09555,0.02234,0.19073,1.01337,,0.62112,-0.69661,0.23959,-0.26748,
80.28125,4.32159,-4.62067,-173.05817,0.01233,0.19086,1.01184,,0.61826,-0.69923,0.23105,-0.27467,
80.28906,4.33655,-4.87488,-173.19275,0.02673,0.19177,1.01349,,0.61532,-0.70176,0.22247,-0.28182,
80.29688,4.33655,-4.60571,-173.07312,0.01617,0.19086,1.01355,,0.61229,-0.70418,0.21388,-0.28894,
80.30469,4.37393,-4.53094,-173.11798,0.00751,0.18921,1.01605,,0.60918,-0.70650,0.20526,-0.29602,
80.31250,4.25430,-4.86740,-173.22266,0.02997,0.19067,1.01404,,0.60597,-0.70874,0.19659,-0.30305,
80.32031,4.32159,-4.57581,-173.01331,0.00916,0.19055,1.01666,,0.60269,-0.71086,0.18792,-0.31005,
80.32813,4.38141,-4.78516,-173.13293,0.01703,0.19202,1.01825,,0.59932,-0.71289,0.17921,-0.31701,
80.33594,4.28421,-4.73282,-173.05817,0.02374,0.19086,1.01636,,0.59586,-0.71482,0.17048,-0.32391,
80.34375,4.35150,-4.56085,-172.99835,0.01050,0.19104,1.01660,,0.59233,-0.71664,0.16174,-0.33079,
80.35156,4.29916,-4.80759,-173.09555,0.02960,0.19073,1.01276,,0.58870,-0.71837,0.15296,-0.33760,
80.35938,4.26926,-4.59824,-172.89368,0.01581,0.18976,1.01367,,0.58500,-0.71999,0.14418,-0.34438,
80.36719,4.41879,-4.88983,-173.16284,0.02356,0.18976,1.01221,,0.58121,-0.72152,0.13535,-0.35111,
80.37500,4.35150,-4.90479,-173.02826,0.03027,0.19012,1.01392,,0.57735,-0.72295,0.12652,-0.35778,
80.38281,4.24683,-4.66553,-172.90115,0.00879,0.18866,1.01385,,0.57340,-0.72428,0.11768,-0.36441,
80.39063,4.39636,-4.88983,-173.13293,0.03217,0.18976,1.01544,,0.56937,-0.72550,0.10881,-0.37099,
80.39844,4.24683,-4.70291,-172.91611,0.02277,0.18964,1.01520,,0.56525,-0.72662,0.09994,-0.37752,
80.40625,4.29916,-4.65057,-172.98340,0.01306,0.19000,1.01392,,0.56106,-0.72764,0.09106,-0.38400,
80.41406,4.26178,-4.80011,-172.90115,0.02594,0.19031,1.01520,,0.55679,-0.72856,0.08217,-0.39043,
80.42188,4.29169,-4.68796,-172.87125,0.01599,0.18878,1.01239,,0.55244,-0.72938,0.07327,-0.39680,
80.42969,4.30664,-4.82254,-173.04321,0.02576,0.18921,1.01208,,0.54801,-0.73009,0.06435,-0.40312,
80.43750,4.30664,-4.69543,-172.84882,0.01801,0.18939,1.01587,,0.54351,-0.73071,0.05543,-0.40938,
80.44531,4.27673,-4.74030,-173.06564,0.01910,0.19006,1.01312,,0.53892,-0.73122,0.04650,-0.41559,
80.45313,4.32159,-4.95712,-172.99835,0.03198,0.19025,1.01514,,0.53427,-0.73163,0.03756,-0.42174,
80.46094,4.24683,-4.60571,-172.92358,0.01233,0.18884,1.01556,,0.52953,-0.73194,0.02863,-0.42784,
80.46875,4.29916,-5.04684,-173.05069,0.03113,0.19031,1.01227,,0.52472,-0.73215,0.01967,-0.43387,
80.47656,4.41879,-4.83002,-172.99088,0.02496,0.18939,1.01849,,0.51984,-0.73225,0.01072,-0.43984,
80.48438,4.32159,-4.59824,-172.95349,0.01019,0.18958,1.01227,,0.51489,-0.73224,0.00179,-0.44577,
80.49219,4.24683,-4.85992,-172.96844,0.02899,0.19037,1.01544,,0.50985,-0.73215,-0.00716,-0.45162,
80.50000,4.38141,-4.65057,-172.82639,0.01776,0.18896,1.01660,,0.50476,-0.73194,-0.01609,-0.45742,
80.50781,4.26926,-4.90479,-173.03574,0.02283,0.18994,1.01074,,0.49958,-0.73164,-0.02503,-0.46314,
80.51563,4.27673,-4.73282,-172.90863,0.02252,0.19037,1.01550,,0.49434,-0.73123,-0.03396,-0.46881,
80.52344,4.19449,-4.69543,-172.80396,0.01343,0.18945,1.01355,,0.48902,-0.73072,-0.04287,-0.47442,
80.53125,4.35150,-4.98703,-173.02078,0.03308,0.19092,1.01599,,0.48363,-0.73011,-0.05180,-0.47995,
80.53906,4.30664,-4.70291,-172.75909,0.01355,0.18909,1.01367,,0.47819,-0.72940,-0.06069,-0.48542,
80.54688,4.23935,-4.68796,-172.94601,0.01172,0.18842,1.01160,,0.47266,-0.72858,-0.06958,-0.49083,
80.55469,4.47113,-4.87488,-172.89368,0.02917,0.18976,1.01947,,0.46709,-0.72766,-0.07848,-0.49617,
80.56250,4.26178,-4.55338,-172.74414,0.01141,0.18848,1.01190,,0.46144,-0.72664,-0.08733,-0.50144,
80.57031,4.32907,-4.83749,-172.87872,0.02393,0.18958,1.01233,,0.45572,-0.72552,-0.09619,-0.50664,
80.57813,4.29169,-4.71786,-172.75162,0.01990,0.19147,1.01666,,0.44994,-0.72430,-0.10503,-0.51177,
80.58594,4.36646,-4.71039,-172.84882,0.01880,0.19055,1.01044,,0.44410,-0.72298,-0.11385,-0.51684,
80.59375,4.38141,-4.93469,-172.95349,0.03204,0.19049,1.01624,,0.43819,-0.72156,-0.12268,-0.52182,
80.60156,4.31412,-4.65057,-172.79648,0.01312,0.18933,1.01245,,0.43222,-0.72003,-0.13146,-0.52674,
80.60938,4.43375,-5.01694,-172.96097,0.03003,0.19000,1.01227,,0.42619,-0.71841,-0.14025,-0.53158,
80.61719,4.34402,-4.81506,-172.94601,0.02600,0.19037,1.01721,,0.42009,-0.71669,-0.14900,-0.53636,
80.62500,4.15710,-4.62067,-172.94601,0.01086,0.18933,1.01074,,0.41393,-0.71487,-0.15772,-0.54107,
80.63281,4.29169,-4.91226,-172.96097,0.03003,0.19092,1.01849,,0.40771,-0.71295,-0.16644,-0.54569,
80.64063,4.20197,-4.71039,-172.91611,0.01031,0.19000,1.01202,,0.40143,-0.71093,-0.17511,-0.55025,
80.64844,4.32159,-4.79263,-173.00583,0.02075,0.18964,1.01068,,0.39509,-0.70881,-0.18377,-0.55472,
80.65625,4.29169,-4.69543,-172.87872,0.02332,0.19159,1.01880,,0.38871,-0.70659,-0.19240,-0.55913,
80.66406,4.26178,-4.65057,-173.05817,0.01605,0.18933,1.01233,,0.38226,-0.70427,-0.20100,-0.56346,
80.67188,4.45618,-4.94965,-173.12546,0.03101,0.19244,1.01233,,0.37575,-0.70185,-0.20959,-0.56770,
80.67969,4.26178,-4.80011,-172.92358,0.01599,0.19110,1.01324,,0.36920,-0.69934,-0.21813,-0.57187,
80.68750,4.43375,-4.86740,-173.15536,0.02893,0.18988,1.01373,,0.36259,-0.69673,-0.22666,-0.57595,
80.69531,4.36646,-4.77020,-173.11050,0.03198,0.19183,1.01831,,0.35593,-0.69402,-0.23515,-0.57997,
80.70313,4.33655,-4.65057,-172.96097,0.01178,0.18878,1.01093,,0.34922,-0.69121,-0.24359,-0.58390,
80.71094,4.21692,-4.83749,-173.05817,0.03271,0.19086,1.01758,,0.34245,-0.68831,-0.25200,-0.58775,
80.71875,4.27673,-4.68048,-172.96844,0.02386,0.19244,1.01953,,0.33564,-0.68531,-0.26037,-0.59153,
80.72656,4.26178,-4.68048,-173.14041,0.02075,0.18872,1.01202,,0.32877,-0.68222,-0.26870,-0.59522,
80.73438,4.39636,-4.68796,-172.94601,0.02679,0.19135,1.02216,,0.32187,-0.67902,-0.27700,-0.59883,
80.74219,4.24683,-4.68796,-172.91611,0.01727,0.19098,1.01294,,0.31492,-0.67574,-0.28525,-0.60235,
80.75000,4.28421,-4.85245,-173.04321,0.03180,0.19012,1.01025,,0.30792,-0.67237,-0.29346,-0.60579,
80.75781,4.40384,-4.74777,-172.88620,0.02112,0.19110,1.01813,,0.30088,-0.66890,-0.30163,-0.60914,
80.76563,4.25430,-4.76273,-172.85629,0.01324,0.18982,1.01160,,0.29380,-0.66535,-0.30975,-0.61241,
80.77344,4.42627,-4.80759,-172.96097,0.03210,0.19189,1.01788,,0.28668,-0.66170,-0.31784,-0.61559,
80.78125,4.29916,-4.70291,-172.69180,0.01434,0.19073,1.01367,,0.27952,-0.65796,-0.32586,-0.61869,
80.78906,4.14215,-4.66553,-172.93854,0.02130,0.18939,1.01038,,0.27230,-0.65412,-0.33384,-0.62171,
80.79688,4.26178,-4.68796,-172.83386,0.02527,0.19073,1.02100,,0.26506,-0.65020,-0.34178,-0.62464,
80.80469,4.28421,-4.72534,-172.83386,0.01569,0.19061,1.01196,,0.25778,-0.64618,-0.34966,-0.62748,
80.81250,4.32907,-4.68796,-172.91611,0.02661,0.19312,1.00952,,0.25045,-0.64208,-0.35750,-0.63024,
80.82031,4.24683,-4.72534,-172.82639,0.02026,0.19000,1.01666,,0.24310,-0.63789,-0.36528,-0.63291,
80.82813,4.35150,-4.80011,-172.93106,0.02753,0.18976,1.00891,,0.23570,-0.63361,-0.37302,-0.63549,
80.83594,4.38889,-4.73282,-172.84134,0.02039,0.19202,1.01831,,0.22828,-0.62924,-0.38070,-0.63798,
80.84375,4.26178,-4.66553,-172.73666,0.01410,0.19049,1.01355,,0.22082,-0.62479,-0.38832,-0.64038,
80.85156,4.34402,-4.88983,-172.98340,0.03302,0.19171,1.01556,,0.21332,-0.62025,-0.39590,-0.64269,
80.85938,4.24683,-4.66553,-172.75162,0.01392,0.19183,1.01324,,0.20580,-0.61562,-0.40340,-0.64492,
80.86719,4.25430,-4.58328,-172.92358,0.01587,0.19177,1.01068,,0.19825,-0.61090,-0.41085,-0.64706,
80.87500,4.26926,-4.79263,-172.87872,0.02710,0.19336,1.01837,,0.19066,-0.60611,-0.41825,-0.64911,
80.88281,4.11224,-4.67300,-172.93854,0.01221,0.19061,1.01007,,0.18304,-0.60123,-0.42558,-0.65108,
80.89063,4.32159,-4.91226,-173.01331,0.03046,0.19116,1.00989,,0.17539,-0.59627,-0.43287,-0.65294,
80.89844,4.32907,-4.60571,-172.83386,0.02185,0.19128,1.01917,,0.16773,-0.59122,-0.44008,-0.65472,
80.90625,4.34402,-4.85992,-172.99088,0.02454,0.19196,1.01074,,0.16003,-0.58610,-0.44724,-0.65639,
80.91406,4.32907,-4.90479,-173.00583,0.03333,0.19171,1.01654,,0.15231,-0.58090,-0.45433,-0.65798,
80.92188,4.26178,-4.77768,-172.87872,0.01508,0.19263,1.01538,,0.14457,-0.57561,-0.46136,-0.65948,
80.92969,4.37393,-4.92722,-172.95349,0.03381,0.19324,1.01062,,0.13680,-0.57025,-0.46832,-0.66089,
80.93750,4.41879,-4.71786,-172.88620,0.02686,0.19379,1.02179,,0.12903,-0.56481,-0.47522,-0.66220,
80.94531,4.30664,-4.74777,-172.92358,0.01495,0.19214,1.01007,,0.12123,-0.55928,-0.48204,-0.66343,
80.95313,4.34402,-4.83749,-172.94601,0.02924,0.19312,1.01813,,0.11341,-0.55369,-0.48880,-0.66456,
80.96094,4.26926,-4.71039,-172.75909,0.01947,0.19183,1.01904,,0.10558,-0.54802,-0.49548,-0.66560,
80.96875,4.23935,-4.94965,-173.02078,0.02527,0.19293,1.00983,,0.09771,-0.54227,-0.50210,-0.66655,
80.97656,4.26178,-4.63562,-172.87872,0.02100,0.19440,1.01965,,0.08985,-0.53644,-0.50864,-0.66741,
80.98438,4.31412,-4.86740,-172.78900,0.01410,0.19208,1.01398,,0.08197,-0.53056,-0.51512,-0.66817,
80.99219,4.43375,-4.78516,-172.99835,0.03412,0.19220,1.01160,,0.07407,-0.52458,-0.52152,-0.66883,
81.00000,4.20197,-4.69543,-172.94601,0.01630,0.19397,1.01385,,0.06616,-0.51854,-0.52785,-0.66942,
81.00781,4.35898,-4.88235,-172.98340,0.03320,0.19263,1.01147,,0.05824,-0.51243,-0.53410,-0.66990,
81.01563,4.24683,-4.67300,-172.89368,0.02722,0.19464,1.01599,,0.05032,-0.50624,-0.54028,-0.67029,
81.02344,4.31412,-4.81506,-173.05069,0.01312,0.19165,1.01117,,0.04237,-0.49999,-0.54638,-0.67059,
81.03125,4.32159,-4.71786,-173.05069,0.03210,0.19318,1.01563,,0.03442,-0.49366,-0.55241,-0.67079,
81.03906,4.39636,-4.74777,-172.87872,0.02136,0.19452,1.01837,,0.02648,-0.48727,-0.55835,-0.67090,
81.04688,4.23935,-4.84497,-173.06564,0.02191,0.19250,1.01184,,0.01851,-0.48081,-0.56422,-0.67092,
81.05469,4.28421,-4.65805,-173.04321,0.02380,0.19403,1.02069,,0.01055,-0.47428,-0.57001,-0.67085,
81.06250,4.23935,-4.70291,-173.01331,0.01654,0.19318,1.01270,,0.00259,-0.46769,-0.57571,-0.67068,
81.07031,4.39636,-4.96460,-173.19275,0.03394,0.19318,1.01099,,-0.00539,-0.46104,-0.58135,-0.67041,
81.07813,4.23187,-4.67300,-172.84882,0.01727,0.19305,1.01532,,-0.01336,-0.45433,-0.58688,-0.67006,
81.08594,4.21692,-4.69543,-172.95349,0.01428,0.19409,1.00940,,-0.02132,-0.44755,-0.59234,-0.66961,
81.09375,4.32159,-4.85992,-173.10303,0.03137,0.19330,1.01660,,-0.02930,-0.44071,-0.59772,-0.66907,
81.10156,4.38889,-4.76273,-172.99088,0.01324,0.19305,1.01404,,-0.03726,-0.43381,-0.60301,-0.66843,
81.10938,4.22440,-4.85992,-173.07312,0.02478,0.19489,1.00995,,-0.04523,-0.42686,-0.60822,-0.66770,
81.11719,4.26926,-4.63562,-172.94601,0.02271,0.19434,1.01642,,-0.05317,-0.41984,-0.61334,-0.66688,
81.12500,4.29169,-4.75525,-173.08060,0.01862,0.19434,1.01453,,-0.06113,-0.41276,-0.61837,-0.66596,
81.13281,4.35150,-4.85245,-173.15536,0.03345,0.19464,1.01013,,-0.06908,-0.40563,-0.62332,-0.66495,
81.14063,4.27673,-4.90479,-172.88620,0.01733,0.19464,1.01526,,-0.07701,-0.39846,-0.62818,-0.66384,
81.14844,4.30664,-4.89731,-173.14041,0.03119,0.19580,1.01154,,-0.08495,-0.39123,-0.63295,-0.66264,
81.15625,4.23187,-4.73282,-173.02078,0.02972,0.19427,1.01569,,-0.09287,-0.38393,-0.63763,-0.66136,
81.16406,4.26926,-4.80011,-172.93106,0.01282,0.19299,1.01697,,-0.10077,-0.37660,-0.64222,-0.65998,
81.17188,4.25430,-4.85245,-173.05817,0.03302,0.19495,1.01691,,-0.10867,-0.36920,-0.64672,-0.65851,
81.17969,4.27673,-4.65057,-172.85629,0.02087,0.19501,1.01569,,-0.11653,-0.36176,-0.65112,-0.65695,
81.18750,4.32907,-4.83749,-173.08060,0.01849,0.19519,1.01599,,-0.12440,-0.35427,-0.65544,-0.65529,
81.19531,4.33655,-4.62814,-172.95349,0.02472,0.19513,1.01691,,-0.13224,-0.34673,-0.65967,-0.65355,
81.20313,4.18701,-4.69543,-173.05817,0.01196,0.19513,1.01465,,-0.14007,-0.33914,-0.66380,-0.65172,
81.21094,4.28421,-4.91974,-173.20770,0.03113,0.19531,1.01093,,-0.14790,-0.33150,-0.66784,-0.64978,
81.21875,4.24683,-4.75525,-172.92358,0.01709,0.19489,1.01434,,-0.15569,-0.32383,-0.67179,-0.64776,
81.22656,4.20197,-4.74777,-173.26752,0.02716,0.19659,1.01300,,-0.16347,-0.31610,-0.67564,-0.64566,
81.23438,4.30664,-4.81506,-173.11798,0.03119,0.19513,1.01544,,-0.17123,-0.30834,-0.67940,-0.64345,
81.24219,4.35150,-4.68796,-173.02826,0.01251,0.19690,1.01678,,-0.17895,-0.30053,-0.68306,-0.64116,
81.25000,4.37393,-4.89731,-173.18527,0.03290,0.19525,1.01343,,-0.18667,-0.29268,-0.68663,-0.63877,
81.25781,4.29169,-4.83749,-173.05069,0.02411,0.19513,1.01593,,-0.19435,-0.28480,-0.69010,-0.63630,
81.26563,4.18701,-4.74777,-173.04321,0.01587,0.19604,1.01520,,-0.20201,-0.27688,-0.69347,-0.63374,
81.27344,4.26178,-4.72534,-173.17032,0.02606,0.19489,1.01306,,-0.20964,-0.26891,-0.69675,-0.63109,
81.28125,4.29916,-4.69543,-172.97592,0.01752,0.19464,1.01483,,-0.21724,-0.26092,-0.69992,-0.62836,
81.28906,4.38141,-4.93469,-173.18527,0.02826,0.19635,1.01367,,-0.22482,-0.25289,-0.70301,-0.62553,
81.29688,4.31412,-4.71039,-172.98340,0.02087,0.19525,1.01587,,-0.23236,-0.24483,-0.70599,-0.62261,
81.30469,4.31412,-4.79263,-173.02826,0.01227,0.19574,1.01709,,-0.23987,-0.23674,-0.70887,-0.61961,
81.31250,4.34402,-4.95712,-173.23761,0.03210,0.19666,1.01227,,-0.24737,-0.22861,-0.71165,-0.61652,
81.32031,4.27673,-4.70291,-172.97592,0.01337,0.19598,1.01624,,-0.25481,-0.22046,-0.71433,-0.61335,
81.32813,4.28421,-4.71039,-172.98340,0.01740,0.19708,1.01587,,-0.26222,-0.21227,-0.71692,-0.61009,
81.33594,4.29916,-4.83002,-173.08807,0.02478,0.19556,1.01361,,-0.26960,-0.20406,-0.71940,-0.60674,
81.34375,4.21692,-4.61319,-172.99835,0.01154,0.19513,1.01556,,-0.27693,-0.19582,-0.72178,-0.60332,
81.35156,4.26926,-4.83002,-173.19275,0.03052,0.19647,1.01233,,-0.28425,-0.18755,-0.72406,-0.59981,
81.35938,4.31412,-4.79263,-172.82639,0.01727,0.19550,1.01306,,-0.29150,-0.17927,-0.72624,-0.59621,
81.36719,4.31412,-4.87488,-173.03574,0.02563,0.19562,1.01837,,-0.29873,-0.17097,-0.72831,-0.59253,
81.37500,4.30664,-4.82254,-172.85629,0.01923,0.19525,1.01361,,-0.30592,-0.16265,-0.73029,-0.58876,
81.38281,4.36646,-4.77768,-172.88620,0.01263,0.19684,1.01477,,-0.31306,-0.15430,-0.73216,-0.58492,
81.39063,4.27673,-4.90479,-173.06564,0.03198,0.19604,1.01263,,-0.32016,-0.14593,-0.73393,-0.58099,
81.39844,4.40384,-4.85245,-172.78900,0.01379,0.19507,1.01648,,-0.32722,-0.13756,-0.73560,-0.57697,
81.40625,4.41879,-4.87488,-172.98340,0.01074,0.19586,1.01837,,-0.33424,-0.12916,-0.73717,-0.57288,
81.41406,4.38141,-4.80759,-172.96844,0.02563,0.19489,1.01105,,-0.34120,-0.12074,-0.73864,-0.56870,
81.42188,4.32907,-4.76273,-172.96097,0.00946,0.19452,1.01855,,-0.34812,-0.11230,-0.74000,-0.56445,
81.42969,4.39636,-4.83002,-173.08807,0.02356,0.19690,1.01770,,-0.35500,-0.10385,-0.74126,-0.56011,
81.43750,4.26926,-4.74030,-172.94601,0.01764,0.19452,1.01288,,-0.36183,-0.09539,-0.74241,-0.55570,
81.44531,4.25430,-4.85992,-173.14041,0.01642,0.19592,1.01733,,-0.36862,-0.08691,-0.74346,-0.55121,
81.45313,4.30664,-4.84497,-173.14041,0.03113,0.19690,1.01025,,-0.37535,-0.07842,-0.74441,-0.54664,
81.46094,4.35150,-4.80759,-172.99835,0.01184,0.19708,1.01764,,-0.38203,-0.06992,-0.74525,-0.54200,
81.46875,4.41879,-4.93469,-173.20023,0.02979,0.19446,1.01251,,-0.38867,-0.06142,-0.74599,-0.53727,
81.47656,4.38889,-4.68796,-173.04321,0.02509,0.19470,1.00928,,-0.39524,-0.05291,-0.74664,-0.53247,
81.48438,4.46365,-4.83002,-173.05817,0.00934,0.19611,1.01630,,-0.40176,-0.04439,-0.74717,-0.52759,
81.49219,4.34402,-4.83002,-173.14789,0.02979,0.19568,1.00964,,-0.40823,-0.03587,-0.74760,-0.52264,
81.50000,4.30664,-4.68796,-173.05817,0.01740,0.19434,1.01312,,-0.41464,-0.02734,-0.74793,-0.51762,
81.50781,4.33655,-4.85992,-173.23013,0.01904,0.19604,1.01758,,-0.42100,-0.01881,-0.74815,-0.51252,
81.51563,4.32907,-4.76273,-173.07312,0.02094,0.19525,1.01215,,-0.42730,-0.01028,-0.74827,-0.50735,
81.52344,4.38889,-4.77020,-172.98340,0.01172,0.19427,1.01636,,-0.43353,-0.00176,-0.74828,-0.50212,
81.53125,4.39636,-4.95712,-173.16284,0.02966,0.19647,1.01282,,-0.43972,0.00677,-0.74819,-0.49680,
81.53906,4.32159,-4.77020,-173.00583,0.01526,0.19476,1.01593,,-0.44584,0.01529,-0.74799,-0.49143,
81.54688,4.34402,-4.75525,-173.04321,0.01013,0.19550,1.02081,,-0.45190,0.02381,-0.74769,-0.48598,
81.55469,4.36646,-4.92722,-173.08060,0.02795,0.19470,1.01099,,-0.45790,0.03232,-0.74729,-0.48046,
81.56250,4.44122,-4.80011,-172.99835,0.01105,0.19562,1.01898,,-0.46384,0.04082,-0.74678,-0.47487,
81.57031,4.35898,-4.82254,-173.16284,0.02985,0.19617,1.01038,,-0.46971,0.04932,-0.74617,-0.46922,
81.57813,4.26926,-4.73282,-173.02826,0.01923,0.19440,1.00934,,-0.47552,0.05781,-0.74546,-0.46350,
81.58594,4.30664,-4.81506,-173.04321,0.01508,0.19702,1.01874,,-0.48126,0.06630,-0.74464,-0.45772,
81.59375,4.35150,-4.74777,-173.00583,0.02148,0.19519,1.01141,,-0.48693,0.07476,-0.74372,-0.45187,
81.60156,4.53094,-4.73282,-172.91611,0.01221,0.19489,1.01544,,-0.49253,0.08321,-0.74271,-0.44595,
81.60938,4.24683,-4.90479,-173.20770,0.02728,0.19568,1.01227,,-0.49809,0.09166,-0.74157,-0.43998,
81.61719,4.25430,-4.72534,-172.96097,0.01538,0.19598,1.01251,,-0.50355,0.10009,-0.74034,-0.43395,
81.62500,4.37393,-4.73282,-172.98340,0.00781,0.19531,1.02002,,-0.50895,0.10851,-0.73901,-0.42785,
81.63281,4.25430,-4.85992,-173.17780,0.02948,0.19507,1.00940,,-0.51429,0.11691,-0.73757,-0.42169,
81.64063,4.38141,-4.75525,-173.08807,0.00928,0.19586,1.01941,,-0.51956,0.12529,-0.73604,-0.41547,
81.64844,4.32907,-4.85245,-173.17032,0.01520,0.19513,1.01843,,-0.52476,0.13366,-0.73439,-0.40918,
81.65625,4.33655,-4.75525,-173.12546,0.02185,0.19415,1.01001,,-0.52988,0.14200,-0.73265,-0.40284,
81.66406,4.35150,-4.80759,-173.17032,0.00970,0.19495,1.02167,,-0.53494,0.15033,-0.73081,-0.39644,
81.67188,4.27673,-4.97955,-173.35724,0.02887,0.19568,1.01154,,-0.53993,0.15864,-0.72885,-0.38999,
81.67969,4.31412,-4.78516,-173.11798,0.01349,0.19604,1.01245,,-0.54483,0.16691,-0.72680,-0.38348,
81.68750,4.25430,-4.81506,-173.25256,0.02307,0.19574,1.01483,,-0.54966,0.17517,-0.72465,-0.37691,
81.69531,4.26926,-4.89731,-173.17032,0.02887,0.19458,1.00916,,-0.55442,0.18340,-0.72240,-0.37030,
81.70313,4.38141,-4.80011,-173.11050,0.00830,0.19641,1.02008,,-0.55910,0.19160,-0.72005,-0.36363,
81.71094,4.26178,-5.04684,-173.27499,0.03058,0.19434,1.01062,,-0.56371,0.19977,-0.71759,-0.35690,
81.71875,4.30664,-4.83002,-173.13293,0.02087,0.19446,1.01074,,-0.56824,0.20791,-0.71504,-0.35013,
81.72656,4.43375,-4.81506,-173.16284,0.01178,0.19623,1.01935,,-0.57268,0.21602,-0.71240,-0.34330,
81.73438,4.36646,-4.85245,-173.10303,0.02374,0.19489,1.00964,,-0.57705,0.22410,-0.70965,-0.33643,
81.74219,4.47861,-4.82254,-173.17780,0.00580,0.19464,1.01520,,-0.58134,0.23214,-0.70681,-0.32950,
81.75000,4.36646,-5.05432,-173.26752,0.02533,0.19598,1.01318,,-0.58557,0.24015,-0.70386,-0.32253,
81.75781,4.34402,-4.70291,-173.02078,0.01740,0.19342,1.01331,,-0.58968,0.24812,-0.70083,-0.31551,
81.76563,4.38889,-4.95712,-173.24509,0.01935,0.19446,1.01691,,-0.59374,0.25607,-0.69768,-0.30845,
81.77344,4.27673,-4.91974,-173.26004,0.02783,0.19427,1.01031,,-0.59771,0.26398,-0.69445,-0.30134,
81.78125,4.41879,-4.76273,-173.05817,0.00732,0.19452,1.02002,,-0.60159,0.27183,-0.69112,-0.29419,
81.78906,4.32159,-4.88235,-173.17780,0.02917,0.19391,1.00964,,-0.60539,0.27966,-0.68769,-0.28700,
81.79688,4.29916,-4.85992,-173.14789,0.02252,0.19452,1.01031,,-0.60911,0.28745,-0.68417,-0.27977,
81.80469,4.42627,-4.71039,-173.18527,0.00568,0.19336,1.02026,,-0.61274,0.29519,-0.68056,-0.27248,
81.81250,4.30664,-4.77768,-173.23013,0.02563,0.19275,1.00854,,-0.61628,0.30290,-0.67686,-0.26517,
81.82031,4.24683,-4.62814,-173.05069,0.01477,0.19324,1.01312,,-0.61973,0.31057,-0.67306,-0.25782,
81.82813,4.38141,-4.88235,-173.14789,0.01978,0.19440,1.01550,,-0.62311,0.31818,-0.66917,-0.25043,
81.83594,4.45618,-4.74777,-173.16284,0.01569,0.19318,1.01263,,-0.62640,0.32574,-0.66518,-0.24299,
81.84375,4.38889,-4.70291,-173.10303,0.00775,0.19403,1.01855,,-0.62960,0.33326,-0.66111,-0.23553,
81.85156,4.38141,-4.98703,-173.29742,0.02948,0.19409,1.01282,,-0.63273,0.34074,-0.65693,-0.22803,
81.85938,4.41132,-4.65057,-173.07312,0.01166,0.19409,1.01752,,-0.63575,0.34816,-0.65268,-0.22049,
81.86719,4.40384,-4.56833,-173.13293,0.01044,0.19373,1.01654,,-0.63868,0.35554,-0.64834,-0.21292,
81.87500,4.32907,-4.82254,-173.20023,0.02484,0.19128,1.00940,,-0.64153,0.36286,-0.64390,-0.20533,
81.88281,4.28421,-4.66553,-173.14041,0.00690,0.19366,1.01801,,-0.64429,0.37014,-0.63937,-0.19770,
81.89063,4.41132,-4.97955,-173.24509,0.02179,0.19348,1.01404,,-0.64698,0.37736,-0.63475,-0.19004,
81.89844,4.39636,-4.71039,-173.04321,0.01709,0.19232,1.01337,,-0.64956,0.38452,-0.63005,-0.18236,
81.90625,4.42627,-4.83002,-173.17780,0.01538,0.19348,1.01636,,-0.65205,0.39163,-0.62526,-0.17465,
81.91406,4.38141,-4.95712,-173.14789,0.03094,0.19336,1.01196,,-0.65447,0.39868,-0.62037,-0.16692,
81.92188,4.45618,-4.72534,-172.96097,0.00958,0.19281,1.01825,,-0.65678,0.40567,-0.61542,-0.15916,
81.92969,4.37393,-4.99451,-173.23013,0.02783,0.19537,1.01068,,-0.65901,0.41261,-0.61036,-0.15137,
81.93750,4.44122,-4.78516,-172.96097,0.01227,0.19409,1.01398,,-0.66114,0.41948,-0.60524,-0.14357,
81.94531,4.38889,-4.69543,-173.02078,0.00708,0.19177,1.01648,,-0.66318,0.42630,-0.60003,-0.13574,
81.95313,4.29169,-4.94965,-173.05069,0.02722,0.19281,1.01178,,-0.66513,0.43306,-0.59473,-0.12790,
81.96094,4.41132,-4.74777,-172.93106,0.00830,0.19330,1.01697,,-0.66698,0.43975,-0.58936,-0.12004,
81.96875,4.36646,-4.89731,-173.02826,0.01740,0.19299,1.01489,,-0.66875,0.44638,-0.58389,-0.11216,
81.97656,4.33655,-4.62067,-173.05069,0.01904,0.19287,1.01508,,-0.67041,0.45296,-0.57836,-0.10425,
81.98438,4.33655,-4.74777,-172.97592,0.01190,0.19250,1.01691,,-0.67199,0.45946,-0.57275,-0.09633,
81.99219,4.35898,-5.02441,-173.07312,0.02820,0.19287,1.01215,,-0.67348,0.46591,-0.56704,-0.08840,
82.00000,4.32907,-4.59824,-172.99088,0.01025,0.19257,1.01599,,-0.67486,0.47228,-0.56128,-0.08045,
82.00781,4.32907,-4.97208,-173.19275,0.02637,0.19287,1.01044,,-0.67617,0.47860,-0.55541,-0.07249,
82.01563,4.33655,-4.85992,-173.14789,0.02667,0.19287,1.01337,,-0.67737,0.48485,-0.54948,-0.06452,
82.02344,4.38141,-4.63562,-173.03574,0.00598,0.19299,1.01648,,-0.67848,0.49102,-0.54348,-0.05653,
82.03125,4.42627,-5.06180,-173.19275,0.02899,0.19354,1.01117,,-0.67950,0.49712,-0.53739,-0.04853,
82.03906,4.38141,-4.81506,-173.15536,0.01758,0.19220,1.01489,,-0.68043,0.50316,-0.53123,-0.04053,
82.04688,4.32907,-4.77020,-173.15536,0.01257,0.19342,1.01654,,-0.68125,0.50913,-0.52500,-0.03251,
82.05469,4.44122,-4.91226,-173.14789,0.02167,0.19257,1.01416,,-0.68199,0.51502,-0.51870,-0.02449,
82.06250,4.38889,-4.69543,-173.02826,0.00995,0.19196,1.01410,,-0.68262,0.52083,-0.51233,-0.01646,
82.07031,4.36646,-4.95712,-173.33481,0.02753,0.19263,1.01056,,-0.68317,0.52659,-0.50588,-0.00843,
82.07813,4.42627,-4.78516,-173.05817,0.01599,0.19159,1.01593,,-0.68362,0.53226,-0.49937,-0.00040,
82.08594,4.34402,-4.76273,-173.21518,0.00806,0.19183,1.01483,,-0.68397,0.53786,-0.49279,0.00764,
82.09375,4.38889,-4.91974,-173.29742,0.03040,0.19220,1.01361,,-0.68423,0.54338,-0.48613,0.01568,
82.10156,4.41132,-4.74777,-173.07312,0.00854,0.19208,1.01642,,-0.68439,0.54882,-0.47942,0.02372,
82.10938,4.44122,-4.82254,-173.22266,0.01672,0.19226,1.01422,,-0.68446,0.55419,-0.47263,0.03176,
82.11719,4.44870,-4.74777,-173.14789,0.02319,0.19312,1.01617,,-0.68443,0.55948,-0.46579,0.03980,
82.12500,4.47861,-4.75525,-173.07312,0.01105,0.19073,1.01538,,-0.68431,0.56468,-0.45888,0.04783,
82.13281,4.45618,-4.79263,-173.11798,0.02539,0.19135,1.01550,,-0.68409,0.56981,-0.45191,0.05586,
82.14063,4.30664,-4.65057,-172.99835,0.01459,0.19067,1.01434,,-0.68377,0.57486,-0.44489,0.06388,
82.14844,4.40384,-4.97955,-173.23013,0.02570,0.19226,1.01324,,-0.68336,0.57983,-0.43778,0.07189,
82.15625,4.24683,-4.70291,-172.99088,0.01733,0.19043,1.01337,,-0.68285,0.58472,-0.43063,0.07988,
82.16406,4.21692,-4.82254,-173.05817,0.00848,0.19006,1.01538,,-0.68224,0.58953,-0.42342,0.08787,
82.17188,4.50851,-4.97208,-173.13293,0.03149,0.19122,1.01404,,-0.68155,0.59425,-0.41614,0.09585,
82.17969,4.48608,-4.67300,-172.93106,0.00946,0.18915,1.01270,,-0.68076,0.59887,-0.40883,0.10382,
82.18750,4.40384,-4.73282,-173.09555,0.01453,0.19061,1.01501,,-0.67987,0.60342,-0.40144,0.11179,
82.19531,4.36646,-4.90479,-173.03574,0.02417,0.19208,1.01697,,-0.67889,0.60789,-0.39400,0.11973,
82.20313,4.45618,-4.76273,-172.96097,0.00830,0.18970,1.01355,,-0.67782,0.61227,-0.38652,0.12765,
82.21094,4.48608,-4.97208,-173.08060,0.02740,0.19080,1.01178,,-0.67665,0.61656,-0.37896,0.13556,
82.21875,4.33655,-4.62067,-172.86377,0.01599,0.19104,1.01495,,-0.67538,0.62077,-0.37139,0.14346,
82.22656,4.43375,-4.77020,-173.08060,0.01959,0.19196,1.01245,,-0.67402,0.62489,-0.36374,0.15134,
82.23438,4.36646,-5.02441,-173.07312,0.03131,0.19049,1.01392,,-0.67257,0.62893,-0.35603,0.15919,
82.24219,4.41132,-4.73282,-172.91611,0.00897,0.18927,1.01367,,-0.67102,0.63287,-0.34830,0.16703,
82.25000,4.38141,-4.91226,-173.13293,0.03009,0.19104,1.01355,,-0.66938,0.63673,-0.34050,0.17485,
82.25781,4.41879,-4.93469,-172.92358,0.02325,0.19196,1.01764,,-0.66765,0.64049,-0.33266,0.18263,
82.26563,4.32907,-4.62067,-172.96844,0.00903,0.18945,1.01276,,-0.66581,0.64417,-0.32479,0.19041,
82.27344,4.35898,-4.85245,-173.07312,0.02887,0.19238,1.01642,,-0.66389,0.64776,-0.31686,0.19815,
82.28125,4.35150,-4.69543,-172.99088,0.01654,0.19000,1.01599,,-0.66187,0.65125,-0.30890,0.20587,
82.28906,4.40384,-4.80011,-173.10303,0.02325,0.19183,1.01147,,-0.65976,0.65466,-0.30088,0.21357,
82.29688,4.31412,-4.71039,-172.95349,0.01935,0.19086,1.01691,,-0.65755,0.65797,-0.29284,0.22124,
82.30469,4.32907,-4.74777,-173.02078,0.01697,0.19025,1.01184,,-0.65525,0.66119,-0.28475,0.22888,
82.31250,4.41879,-4.94965,-173.08060,0.03149,0.19189,1.01587,,-0.65287,0.66432,-0.27661,0.23648,
82.32031,4.35898,-4.65057,-172.93106,0.01373,0.19080,1.01337,,-0.65039,0.66735,-0.26846,0.24406,
82.32813,4.43375,-4.82254,-172.98340,0.02930,0.19110,1.01093,,-0.64782,0.67029,-0.26026,0.25160,
82.33594,4.45618,-4.82254,-172.96097,0.02728,0.19257,1.01746,,-0.64516,0.67314,-0.25202,0.25911,
82.34375,4.32159,-4.63562,-172.88620,0.00922,0.19031,1.01251,,-0.64241,0.67589,-0.24376,0.26658,
82.35156,4.49356,-4.77768,-172.80396,0.03125,0.19086,1.01630,,-0.63958,0.67854,-0.23547,0.27402,
82.35938,4.45618,-4.71786,-172.75909,0.02075,0.19165,1.01624,,-0.63665,0.68109,-0.22714,0.28142,
82.36719,4.37393,-4.85245,-172.90115,0.01831,0.19080,1.01172,,-0.63363,0.68356,-0.21878,0.28878,
82.37500,4.31412,-4.79263,-172.87125,0.02277,0.19086,1.01990,,-0.63052,0.68593,-0.21039,0.29610,
82.38281,4.33655,-4.73282,-172.71423,0.01312,0.18982,1.01459,,-0.62733,0.68820,-0.20199,0.30338,
82.39063,4.41132,-4.97208,-172.90115,0.02917,0.19061,1.00983,,-0.62404,0.69038,-0.19354,0.31061,
82.39844,4.41879,-4.64310,-172.74414,0.01532,0.19031,1.01294,,-0.62067,0.69246,-0.18508,0.31782,
82.40625,4.43375,-4.71039,-172.74414,0.00964,0.19025,1.01056,,-0.61722,0.69444,-0.17660,0.32498,
82.41406,4.37393,-4.91974,-172.82639,0.02960,0.19110,1.01813,,-0.61368,0.69633,-0.16807,0.33208,
82.42188,4.32159,-4.60571,-172.81891,0.00970,0.18903,1.01202,,-0.61004,0.69812,-0.15955,0.33916,
82.42969,4.41132,-4.80011,-172.91611,0.02020,0.19232,1.01038,,-0.60632,0.69981,-0.15099,0.34619,
82.43750,4.38889,-4.80011,-172.81143,0.02063,0.19141,1.01801,,-0.60252,0.70140,-0.14241,0.35316,
82.44531,4.38141,-4.69543,-172.91611,0.01526,0.18933,1.01147,,-0.59863,0.70290,-0.13381,0.36010,
82.45313,4.41132,-4.97208,-173.06564,0.03052,0.19177,1.01184,,-0.59465,0.70430,-0.12518,0.36699,
82.46094,4.40384,-4.72534,-172.85629,0.01465,0.18958,1.01349,,-0.59060,0.70560,-0.11655,0.37382,
82.46875,4.41879,-4.95712,-173.09555,0.02844,0.19110,1.01166,,-0.58645,0.70681,-0.10789,0.38061,
82.47656,4.43375,-4.87488,-172.96844,0.02808,0.19122,1.01855,,-0.58223,0.70791,-0.09922,0.38734,
82.48438,4.26926,-4.53094,-172.90115,0.00873,0.18976,1.01074,,-0.57791,0.70891,-0.09056,0.39403,
82.49219,4.50104,-4.85245,-173.04321,0.03149,0.19061,1.01733,,-0.57353,0.70981,-0.08186,0.40066,
82.50000,4.23935,-4.71039,-172.90115,0.01288,0.19019,1.01501,,-0.56905,0.71062,-0.07317,0.40724,
82.50781,4.34402,-4.83002,-172.99835,0.01721,0.18988,1.01239,,-0.56450,0.71133,-0.06447,0.41376,
82.51563,4.42627,-4.85245,-172.88620,0.02533,0.19171,1.02087,,-0.55987,0.71194,-0.05575,0.42022,
82.52344,4.35898,-4.76273,-172.96097,0.01208,0.19086,1.00958,,-0.55516,0.71245,-0.04703,0.42662,
82.53125,4.35150,-4.91974,-173.09555,0.02869,0.19177,1.00873,,-0.55036,0.71286,-0.03830,0.43297,
82.53906,4.32907,-4.67300,-172.87872,0.01996,0.19043,1.01746,,-0.54550,0.71317,-0.02958,0.43926,
82.54688,4.42627,-4.75525,-173.01331,0.02539,0.19031,1.00946,,-0.54055,0.71337,-0.02084,0.44550,
82.55469,4.40384,-4.78516,-173.09555,0.03149,0.19165,1.01849,,-0.53553,0.71348,-0.01210,0.45167,
82.56250,4.27673,-4.68048,-172.75162,0.01160,0.18958,1.01312,,-0.53043,0.71349,-0.00338,0.45778,
82.57031,4.35898,-4.94965,-172.96097,0.03418,0.19171,1.01459,,-0.52526,0.71341,0.00536,0.46382,
82.57813,4.34402,-4.71786,-172.89368,0.02411,0.19104,1.02301,,-0.52001,0.71322,0.01408,0.46980,
82.58594,4.43375,-4.71786,-172.83386,0.01434,0.19000,1.01019,,-0.51470,0.71292,0.02280,0.47572,
82.59375,4.53094,-4.91226,-172.82639,0.02643,0.19165,1.01880,,-0.50931,0.71253,0.03153,0.48156,
82.60156,4.38889,-4.70291,-172.81143,0.01855,0.19061,1.01678,,-0.50385,0.71204,0.04023,0.48735,
82.60938,4.42627,-4.76273,-172.93854,0.02838,0.19031,1.01099,,-0.49832,0.71145,0.04894,0.49307,
82.61719,4.33655,-4.71786,-172.72171,0.01917,0.19189,1.01849,,-0.49271,0.71077,0.05763,0.49872,
82.62500,4.40384,-4.80011,-172.75162,0.01447,0.19019,1.01331,,-0.48704,0.70998,0.06631,0.50430,
82.63281,4.43375,-4.83749,-172.87872,0.03284,0.19226,1.01782,,-0.48130,0.70910,0.07499,0.50981,
82.64063,4.41879,-4.75525,-172.73666,0.01544,0.19104,1.01550,,-0.47549,0.70811,0.08365,0.51525,
82.64844,4.44122,-4.71786,-172.93106,0.01624,0.19006,1.01208,,-0.46961,0.70703,0.09230,0.52063,
82.65625,4.37393,-4.76273,-172.91611,0.02533,0.19263,1.02100,,-0.46366,0.70585,0.10094,0.52593,
82.66406,4.36646,-4.66553,-172.85629,0.01227,0.19092,1.00836,,-0.45765,0.70457,0.10956,0.53117,
82.67188,4.51599,-4.77768,-172.87125,0.02728,0.19312,1.01154,,-0.45158,0.70319,0.11817,0.53632,
82.67969,4.39636,-4.63562,-172.81143,0.01978,0.19147,1.01935,,-0.44544,0.70171,0.12675,0.54141,
82.68750,4.37393,-4.79263,-172.94601,0.02313,0.19232,1.00970,,-0.43923,0.70014,0.13532,0.54642,
82.69531,4.36646,-4.63562,-172.86377,0.02307,0.19318,1.02051,,-0.43296,0.69846,0.14386,0.55137,
82.70313,4.29916,-4.71039,-172.81891,0.01349,0.19147,1.01312,,-0.42662,0.69670,0.15238,0.55623,
82.71094,4.50851,-4.89731,-172.96097,0.03326,0.19281,1.01215,,-0.42023,0.69483,0.16089,0.56101,
82.71875,4.41132,-4.62814,-172.89368,0.01672,0.19067,1.01471,,-0.41378,0.69287,0.16937,0.56572,
82.72656,4.34402,-4.74777,-172.89368,0.01263,0.19086,1.00946,,-0.40727,0.69081,0.17782,0.57035,
82.73438,4.41879,-4.74777,-172.98340,0.02954,0.19202,1.01678,,-0.40069,0.68865,0.18625,0.57490,
82.74219,4.29916,-4.66553,-172.78900,0.01129,0.19092,1.01123,,-0.39407,0.68641,0.19464,0.57937,
82.75000,4.38889,-4.90479,-173.00583,0.02631,0.19263,1.01074,,-0.38738,0.68407,0.20302,0.58376,
82.75781,4.32159,-4.61319,-172.80396,0.02161,0.19312,1.01825,,-0.38064,0.68162,0.21135,0.58808,
82.76563,4.31412,-4.80011,-172.87125,0.02081,0.19183,1.01166,,-0.37384,0.67909,0.21966,0.59231,
82.77344,4.49356,-4.86740,-172.92358,0.03290,0.19336,1.01471,,-0.36699,0.67647,0.22795,0.59645,
82.78125,4.35150,-4.71039,-172.69180,0.01563,0.19281,1.01343,,-0.36010,0.67375,0.23618,0.60051,
82.78906,4.41879,-4.75525,-172.90863,0.03088,0.19318,1.01038,,-0.35315,0.67093,0.24439,0.60449,
82.79688,4.50851,-4.56833,-172.85629,0.02600,0.19446,1.01746,,-0.34615,0.66801,0.25257,0.60840,
82.80469,4.24683,-4.65805,-172.83386,0.00995,0.19287,1.01086,,-0.33910,0.66501,0.26069,0.61222,
82.81250,4.56085,-4.67300,-173.00583,0.02942,0.19318,1.01685,,-0.33200,0.66191,0.26880,0.61595,
82.82031,4.46365,-4.63562,-172.89368,0.02039,0.19354,1.01794,,-0.32485,0.65872,0.27686,0.61961,
82.82813,4.37393,-4.74030,-173.05069,0.02142,0.19293,1.01147,,-0.31765,0.65544,0.28489,0.62317,
82.83594,4.44122,-4.69543,-172.84134,0.02173,0.19403,1.01990,,-0.31041,0.65207,0.29287,0.62664,
82.84375,4.38141,-4.69543,-172.84882,0.01404,0.19324,1.01416,,-0.30313,0.64861,0.30080,0.63003,
82.85156,4.44122,-4.86740,-173.18527,0.03265,0.19330,1.01154,,-0.29578,0.64506,0.30871,0.63333,
82.85938,4.28421,-4.62067,-172.87872,0.01642,0.19366,1.01660,,-0.28841,0.64142,0.31655,0.63656,
82.86719,4.39636,-4.78516,-173.11050,0.02875,0.19348,1.01190,,-0.28098,0.63769,0.32436,0.63968,
82.87500,4.50851,-4.74030,-173.08060,0.02887,0.19305,1.01538,,-0.27352,0.63387,0.33213,0.64272,
82.88281,4.33655,-4.68048,-173.01331,0.01276,0.19250,1.01373,,-0.26602,0.62996,0.33984,0.64567,
82.89063,4.41132,-4.77768,-173.24509,0.03314,0.19385,1.01697,,-0.25847,0.62596,0.34751,0.64854,
82.89844,4.41132,-4.67300,-173.02078,0.02136,0.19409,1.01782,,-0.25089,0.62188,0.35513,0.65131,
82.90625,4.38889,-4.65057,-173.11798,0.01678,0.19373,1.01276,,-0.24328,0.61771,0.36269,0.65399,
82.91406,4.34402,-4.56833,-173.05817,0.02588,0.19507,1.01764,,-0.23563,0.61345,0.37020,0.65659,
82.92188,4.44870,-4.73282,-172.85629,0.01678,0.19348,1.01575,,-0.22795,0.60912,0.37765,0.65909,
82.92969,4.42627,-4.85992,-173.28995,0.03021,0.19568,1.01117,,-0.22022,0.60470,0.38507,0.66149,
82.93750,4.37393,-4.65057,-172.92358,0.02063,0.19452,1.01660,,-0.21247,0.60019,0.39241,0.66381,
82.94531,4.35898,-4.80759,-172.96097,0.01416,0.19226,1.01398,,-0.20469,0.59561,0.39970,0.66603,
82.95313,4.47861,-4.77768,-173.01331,0.03479,0.19421,1.01678,,-0.19688,0.59094,0.40693,0.66815,
82.96094,4.23935,-4.72534,-172.90115,0.01300,0.19415,1.01434,,-0.18904,0.58620,0.41410,0.67020,
82.96875,4.24683,-4.73282,-173.13293,0.02026,0.19391,1.01514,,-0.18116,0.58137,0.42121,0.67214,
82.97656,4.33655,-4.63562,-172.90863,0.02393,0.19421,1.01849,,-0.17327,0.57645,0.42826,0.67400,
82.98438,4.35898,-4.68796,-173.01331,0.01520,0.19482,1.01379,,-0.16535,0.57146,0.43525,0.67576,
82.99219,4.44122,-4.80759,-173.02078,0.03058,0.19440,1.01123,,-0.15740,0.56640,0.44218,0.67742,
83.00000,4.29916,-4.67300,-172.86377,0.01776,0.19373,1.01373,,-0.14944,0.56125,0.44904,0.67899,
83.00781,4.32907,-4.81506,-173.14789,0.02722,0.19586,1.01276,,-0.14143,0.55603,0.45585,0.68046,
83.01563,4.38141,-4.74030,-173.02826,0.03058,0.19476,1.01556,,-0.13342,0.55073,0.46259,0.68184,
83.02344,4.32159,-4.65057,-172.90115,0.01099,0.19482,1.01453,,-0.12539,0.54535,0.46925,0.68313,
83.03125,4.47113,-4.85245,-173.23761,0.03271,0.19452,1.01178,,-0.11733,0.53990,0.47587,0.68432,
83.03906,4.41132,-4.62814,-173.04321,0.02209,0.19470,1.01398,,-0.10926,0.53437,0.48241,0.68541,
83.04688,4.38889,-4.80011,-173.08807,0.01465,0.19482,1.01624,,-0.10117,0.52877,0.48888,0.68641,
83.05469,4.42627,-4.68048,-173.12546,0.02460,0.19434,1.01581,,-0.09306,0.52309,0.49528,0.68732,
83.06250,4.32907,-4.71039,-172.94601,0.01178,0.19550,1.01575,,-0.08495,0.51735,0.50161,0.68813,
83.07031,4.46365,-4.88983,-173.18527,0.02844,0.19623,1.01404,,-0.07681,0.51154,0.50788,0.68883,
83.07813,4.29169,-4.62814,-173.08807,0.01880,0.19501,1.01379,,-0.06866,0.50565,0.51406,0.68945,
83.08594,4.39636,-4.68796,-173.17032,0.02271,0.19440,1.01453,,-0.06050,0.49969,0.52018,0.68998,
83.09375,4.43375,-4.73282,-173.17032,0.03278,0.19568,1.01385,,-0.05233,0.49366,0.52622,0.69040,
83.10156,4.44870,-4.79263,-172.93854,0.01331,0.19397,1.01416,,-0.04416,0.48758,0.53218,0.69072,
83.10938,4.36646,-4.85245,-173.14041,0.03125,0.19531,1.01282,,-0.03597,0.48143,0.53808,0.69095,
83.11719,4.24683,-4.70291,-173.02826,0.02618,0.19550,1.01270,,-0.02778,0.47520,0.54388,0.69109,
83.12500,4.43375,-4.76273,-173.04321,0.01215,0.19519,1.01788,,-0.01958,0.46892,0.54962,0.69113,
83.13281,4.38889,-4.62814,-172.99835,0.02765,0.19495,1.01227,,-0.01139,0.46256,0.55527,0.69107,
83.14063,4.34402,-4.54590,-172.82639,0.01880,0.19482,1.01343,,-0.00321,0.45615,0.56084,0.69092,
83.14844,4.47113,-4.72534,-173.05069,0.02460,0.19452,1.01440,,0.00499,0.44967,0.56634,0.69067,
83.15625,4.33655,-4.78516,-172.90863,0.02057,0.19409,1.01172,,0.01320,0.44314,0.57176,0.69032,
83.16406,4.49356,-4.68048,-172.90863,0.01129,0.19531,1.01477,,0.02139,0.43655,0.57709,0.68988,
83.17188,4.35898,-4.85245,-173.05817,0.02924,0.19531,1.01239,,0.02960,0.42990,0.58235,0.68934,
83.17969,4.43375,-4.73282,-172.89368,0.01514,0.19354,1.01453,,0.03779,0.42319,0.58752,0.68870,
83.18750,4.52347,-4.69543,-172.92358,0.01184,0.19452,1.01746,,0.04597,0.41642,0.59261,0.68796,
83.19531,4.45618,-4.73282,-172.96097,0.02466,0.19446,1.01019,,0.05416,0.40959,0.59762,0.68713,
83.20313,4.39636,-4.66553,-172.87872,0.00903,0.19440,1.01697,,0.06233,0.40271,0.60254,0.68621,
83.21094,4.38889,-4.75525,-173.00583,0.02509,0.19531,1.01746,,0.07051,0.39577,0.60737,0.68519,
83.21875,4.30664,-4.66553,-172.98340,0.01801,0.19360,1.01306,,0.07867,0.38878,0.61212,0.68408,
83.22656,4.29169,-4.69543,-172.97592,0.01788,0.19482,1.01758,,0.08683,0.38173,0.61678,0.68288,
83.23438,4.32159,-4.68048,-172.96097,0.02081,0.19501,1.01056,,0.09498,0.37464,0.62135,0.68158,
83.24219,4.42627,-4.71786,-173.02078,0.01257,0.19391,1.01495,,0.10311,0.36749,0.62584,0.68017,
83.25000,4.41132,-4.79263,-173.11050,0.02954,0.19580,1.01270,,0.11124,0.36030,0.63025,0.67868,
83.25781,4.37393,-4.57581,-172.97592,0.01471,0.19495,1.01270,,0.11934,0.35305,0.63456,0.67709,
83.26563,4.45618,-4.56085,-173.05069,0.00928,0.19440,1.01825,,0.12743,0.34574,0.63879,0.67541,
83.27344,4.29916,-4.62814,-173.03574,0.02765,0.19354,1.01245,,0.13550,0.33840,0.64292,0.67363,
83.28125,4.38141,-4.71039,-172.99835,0.01056,0.19470,1.01910,,0.14356,0.33102,0.64696,0.67176,
83.28906,4.43375,-4.75525,-173.13293,0.01929,0.19598,1.01959,,0.15161,0.32358,0.65091,0.66979,
83.29688,4.49356,-4.62814,-173.05069,0.01923,0.19348,1.01025,,0.15963,0.31611,0.65478,0.66773,
83.30469,4.29169,-4.63562,-173.13293,0.01373,0.19678,1.02100,,0.16763,0.30858,0.65855,0.66558,
83.31250,4.38889,-4.86740,-173.20023,0.02979,0.19458,1.01379,,0.17562,0.30103,0.66222,0.66332,
83.32031,4.42627,-4.63562,-172.98340,0.01379,0.19525,1.01324,,0.18357,0.29343,0.66581,0.66099,
83.32813,4.31412,-4.77768,-173.14789,0.02759,0.19501,1.01630,,0.19152,0.28579,0.66929,0.65855,
83.33594,4.32159,-4.71039,-173.05069,0.02673,0.19330,1.00940,,0.19942,0.27812,0.67268,0.65603,
83.34375,4.33655,-4.59076,-172.94601,0.00922,0.19489,1.01965,,0.20730,0.27041,0.67598,0.65342,
83.35156,4.45618,-4.80759,-173.13293,0.02954,0.19580,1.00952,,0.21516,0.26266,0.67919,0.65071,
83.35938,4.23935,-4.56085,-172.99088,0.01862,0.19250,1.01263,,0.22297,0.25487,0.68229,0.64792,
83.36719,4.44122,-4.71786,-173.07312,0.01465,0.19495,1.01935,,0.23077,0.24706,0.68531,0.64503,
83.37500,4.27673,-4.63562,-173.01331,0.02222,0.19397,1.00995,,0.23853,0.23921,0.68822,0.64205,
83.38281,4.40384,-4.62067,-172.98340,0.01324,0.19440,1.01514,,0.24626,0.23133,0.69105,0.63898,
83.39063,4.32907,-4.85992,-173.15536,0.02753,0.19513,1.01355,,0.25397,0.22342,0.69377,0.63582,
83.39844,4.44870,-4.60571,-173.00583,0.01453,0.19391,1.01147,,0.26163,0.21548,0.69640,0.63257,
83.40625,4.37393,-4.51599,-172.99088,0.00714,0.19409,1.02075,,0.26925,0.20751,0.69893,0.62924,
83.41406,4.29916,-4.83749,-173.15536,0.02710,0.19366,1.00916,,0.27685,0.19951,0.70136,0.62582,
83.42188,4.38141,-4.64310,-172.99835,0.00720,0.19495,1.01794,,0.28441,0.19149,0.70369,0.62231,
83.42969,4.26926,-4.85245,-173.15536,0.02887,0.19403,1.00995,,0.29194,0.18345,0.70592,0.61871,
83.43750,4.36646,-4.51599,-173.11050,0.02136,0.19409,1.01086,,0.29941,0.17537,0.70806,0.61502,
83.44531,4.26178,-4.59076,-173.17032,0.00989,0.19586,1.02325,,0.30685,0.16727,0.71009,0.61125,
83.45313,4.32159,-4.62067,-173.08060,0.02472,0.19318,1.00726,,0.31425,0.15915,0.71203,0.60740,
83.46094,4.41879,-4.56085,-173.01331,0.01270,0.19440,1.01410,,0.32159,0.15101,0.71387,0.60345,
83.46875,4.41879,-4.85245,-173.23013,0.02368,0.19531,1.01782,,0.32892,0.14286,0.71561,0.59942,
83.47656,4.30664,-4.61319,-173.06564,0.01807,0.19281,1.01190,,0.33619,0.13469,0.71725,0.59531,
83.48438,4.46365,-4.56833,-173.06564,0.00830,0.19568,1.01947,,0.34340,0.12649,0.71879,0.59111,
83.49219,4.34402,-4.86740,-173.23761,0.02905,0.19373,1.00995,,0.35059,0.11829,0.72023,0.58683,
83.50000,4.35150,-4.60571,-173.00583,0.01080,0.19183,1.01788,,0.35772,0.11007,0.72156,0.58247,
83.50781,4.44122,-4.64310,-173.02826,0.01215,0.19470,1.02106,,0.36479,0.10184,0.72280,0.57802,
83.51563,4.24683,-4.70291,-173.10303,0.02472,0.19366,1.00995,,0.37182,0.09359,0.72393,0.57350,
83.52344,4.50104,-4.59076,-173.15536,0.00824,0.19360,1.01990,,0.37880,0.08534,0.72498,0.56889,
83.53125,4.36646,-4.89731,-173.19275,0.02582,0.19458,1.01593,,0.38575,0.07707,0.72590,0.56420,
83.53906,4.47113,-4.61319,-173.02078,0.01654,0.19238,1.01135,,0.39262,0.06880,0.72674,0.55943,
83.54688,4.43375,-4.78516,-173.12546,0.02051,0.19324,1.01941,,0.39945,0.06052,0.72747,0.55459,
83.55469,4.42627,-4.90479,-173.13293,0.03125,0.19458,1.00555,,0.40623,0.05224,0.72810,0.54966,
83.56250,4.23935,-4.72534,-172.99835,0.01160,0.19183,1.03943,,0.41294,0.04395,0.72862,0.54467,
83.57031,4.68048,-4.38141,-173.21518,0.02588,0.19434,0.97821,,0.41958,0.03565,0.72907,0.53957,
83.57813,4.61319,-4.20944,-173.06564,0.00903,0.19983,1.09247,,0.42616,0.02734,0.72941,0.53442,
83.58594,4.03000,-5.15152,-172.97592,0.01385,0.18646,0.95868,,0.43272,0.01904,0.72961,0.52920,
83.59375,4.79263,-4.71039,-173.12546,0.01947,0.19873,1.04657,,0.43921,0.01075,0.72975,0.52388,
83.60156,3.85803,-4.76273,-173.00583,0.01337,0.18719,1.02313,,0.44563,0.00244,0.72974,0.51853,
83.60938,4.28421,-4.36646,-173.19275,0.02032,0.19342,1.02649,,0.45198,-0.00588,0.72967,0.51309,
83.61719,4.35150,-4.74030,-173.02826,0.02563,0.18890,0.99054,,0.45828,-0.01417,0.72949,0.50757,
83.62500,4.80759,-4.59824,-173.15536,0.01221,0.19104,1.02124,,0.46452,-0.02246,0.72922,0.50195,
83.63281,4.81506,-5.17395,-173.28247,0.03088,0.19763,1.01660,,0.47073,-0.03073,0.72883,0.49626,
83.64063,4.11972,-4.95712,-172.97592,0.01099,0.19012,1.00275,,0.47685,-0.03901,0.72833,0.49054,
83.64844,4.44870,-4.38889,-173.35724,0.02112,0.20111,1.02893,,0.48289,-0.04731,0.72775,0.48473,
83.65625,4.36646,-4.17206,-173.23761,0.01349,0.19482,1.02509,,0.48884,-0.05560,0.72708,0.47885,
83.66406,4.36646,-5.00198,-173.11798,0.00934,0.19165,1.01306,,0.49477,-0.06385,0.72628,0.47291,
83.67188,4.43375,-4.92722,-173.28247,0.03143,0.19574,1.02081,,0.50064,-0.07210,0.72538,0.46689,
83.67969,4.23187,-4.78516,-173.08807,0.02368,0.19122,1.02148,,0.50642,-0.08033,0.72438,0.46083,
83.68750,4.33655,-4.23935,-173.23761,0.01575,0.19312,1.02643,,0.51210,-0.08858,0.72330,0.45468,
83.69531,4.08981,-4.98703,-173.08060,0.02350,0.18787,0.99609,,0.51775,-0.09679,0.72209,0.44850,
83.70313,4.23935,-4.81506,-173.03574,0.01221,0.19061,1.00885,,0.52332,-0.10498,0.72079,0.44224,
83.71094,4.39636,-4.89731,-173.29742,0.02698,0.19312,1.01556,,0.52883,-0.11316,0.71939,0.43590,
83.71875,4.35898,-4.38141,-173.04321,0.01135,0.18982,0.99933,,0.53424,-0.12133,0.71791,0.42951,
83.72656,4.44122,-4.44122,-173.16284,0.00397,0.19269,1.01416,,0.53958,-0.12947,0.71633,0.42305,
83.73438,4.35150,-5.07675,-173.14789,0.02869,0.19458,1.01007,,0.54487,-0.13759,0.71462,0.41654,
83.74219,4.34402,-4.55338,-173.07312,0.00745,0.19263,1.02667,,0.55006,-0.14569,0.71283,0.40997,
83.75000,4.29169,-4.60571,-173.22266,0.01752,0.19409,1.01715,,0.55519,-0.15378,0.71094,0.40333,
83.75781,4.23935,-4.71786,-173.12546,0.02185,0.18896,1.00305,,0.56023,-0.16184,0.70895,0.39665,
83.76563,4.24683,-4.91974,-173.06564,0.01306,0.19263,1.03290,,0.56521,-0.16987,0.70685,0.38992,
83.77344,3.88794,-5.25620,-173.23013,0.03400,0.19232,1.01648,,0.57013,-0.17788,0.70463,0.38314,
83.78125,3.89542,-4.56085,-172.90863,0.01453,0.19147,1.01288,,0.57493,-0.18588,0.70235,0.37632,
83.78906,4.15710,-4.80011,-173.13293,0.02716,0.19202,1.00751,,0.57967,-0.19383,0.69996,0.36942,
83.79688,4.80759,-4.38141,-172.95349,0.01337,0.19305,1.01605,,0.58432,-0.20174,0.69751,0.36244,
83.80469,4.91974,-4.43375,-173.05817,0.00201,0.19263,1.02777,,0.58889,-0.20962,0.69496,0.35540,
83.81250,4.26178,-4.88983,-173.13293,0.02686,0.19183,1.01947,,0.59339,-0.21748,0.69228,0.34834,
83.82031,4.11972,-4.68048,-173.04321,0.00427,0.19116,1.01758,,0.59780,-0.22532,0.68951,0.34124,
83.82813,3.99261,-4.87488,-173.17032,0.01025,0.19238,1.01910,,0.60214,-0.23313,0.68663,0.33409,
83.83594,4.25430,-4.83002,-173.05817,0.02472,0.19141,1.00555,,0.60639,-0.24089,0.68367,0.32689,
83.84375,4.55338,-4.62814,-173.10303,0.01373,0.18774,1.01617,,0.61056,-0.24861,0.68063,0.31962,
83.85156,4.62067,-4.77768,-173.21518,0.03320,0.19061,1.00836,,0.61465,-0.25630,0.67748,0.31230,
83.85938,4.56085,-4.55338,-173.11050,0.01874,0.18793,1.02148,,0.61864,-0.26395,0.67426,0.30494,
83.86719,4.11224,-4.96460,-173.17780,0.02289,0.19550,1.01978,,0.62257,-0.27157,0.67091,0.29756,
83.87500,3.97018,-5.03189,-173.27499,0.02893,0.19513,1.01318,,0.62640,-0.27917,0.66746,0.29014,
83.88281,4.08981,-4.70291,-173.13293,0.00476,0.19452,1.01172,,0.63014,-0.28672,0.66394,0.28268,
83.89063,4.46365,-4.94217,-173.18527,0.02783,0.19318,1.00977,,0.63380,-0.29421,0.66032,0.27516,
83.89844,4.56085,-4.61319,-173.14789,0.01971,0.19330,1.02228,,0.63737,-0.30165,0.65663,0.26758,
83.90625,4.20197,-4.71786,-173.11050,0.00830,0.18909,1.02191,,0.64085,-0.30907,0.65284,0.25999,
83.91406,4.11972,-5.01694,-173.11050,0.02344,0.18652,1.01398,,0.64425,-0.31644,0.64894,0.25237,
83.92188,4.05243,-4.87488,-172.96097,0.01318,0.18500,1.01117,,0.64755,-0.32376,0.64496,0.24472,
83.92969,4.35150,-5.03937,-173.22266,0.03003,0.18787,1.01398,,0.65077,-0.33103,0.64088,0.23702,
83.93750,4.56833,-4.47113,-172.90115,0.02832,0.18713,1.00366,,0.65389,-0.33825,0.63676,0.22927,
83.94531,4.56085,-4.26926,-172.99088,0.01733,0.18964,1.01361,,0.65690,-0.34541,0.63255,0.22148,
83.95313,4.56833,-4.70291,-173.11798,0.03754,0.19720,1.01764,,0.65985,-0.35253,0.62823,0.21366,
83.96094,4.17206,-4.77768,-172.98340,0.01215,0.19434,1.01733,,0.66269,-0.35961,0.62382,0.20583,
83.96875,4.02252,-4.85992,-173.02078,0.01215,0.19257,1.02216,,0.66545,-0.36665,0.61931,0.19799,
83.97656,4.16458,-4.93469,-173.04321,0.01929,0.18939,1.00568,,0.66812,-0.37362,0.61472,0.19010,
83.98438,4.40384,-4.35150,-172.93106,0.00018,0.18799,1.01050,,0.67068,-0.38054,0.61008,0.18217,
83.99219,4.59076,-4.57581,-172.96097,0.01880,0.19122,1.01941,,0.67316,-0.38739,0.60535,0.17421,
84.00000,4.44122,-4.40384,-172.89368,0.00848,0.19080,1.01941,,0.67553,-0.39419,0.60054,0.16622,
84.00781,4.23935,-5.00946,-173.09555,0.01740,0.18945,1.01556,,0.67783,-0.40094,0.59561,0.15823,
84.01563,4.14215,-5.00198,-172.96097,0.02588,0.18793,1.01282,,0.68004,-0.40764,0.59060,0.15022,
84.02344,4.27673,-4.81506,-172.97592,0.01807,0.18719,1.01166,,0.68215,-0.41428,0.58552,0.14218,
84.03125,4.55338,-4.89731,-173.18527,0.04327,0.19220,1.01581,,0.68417,-0.42085,0.58035,0.13410,
84.03906,4.35898,-4.42627,-172.98340,0.02173,0.19269,1.01160,,0.68608,-0.42737,0.57513,0.12600,
84.04688,4.40384,-4.31412,-172.99835,0.01581,0.19196,1.01398,,0.68788,-0.43383,0.56984,0.11788,
84.05469,4.24683,-4.87488,-173.10303,0.02863,0.19324,1.01471,,0.68961,-0.44023,0.56443,0.10976,
84.06250,4.21692,-4.86740,-173.07312,0.00439,0.18878,1.01569,,0.69125,-0.44657,0.55895,0.10162,
84.07031,4.25430,-4.97955,-173.22266,0.01776,0.18823,1.01141,,0.69279,-0.45285,0.55339,0.09346,
84.07813,4.43375,-4.48608,-172.99835,0.01398,0.18848,1.01843,,0.69422,-0.45905,0.54778,0.08527,
84.08594,4.47113,-4.48608,-173.11050,0.01166,0.18701,1.01141,,0.69556,-0.46519,0.54209,0.07706,
84.09375,4.41879,-4.94965,-173.16284,0.02838,0.18945,1.01361,,0.69682,-0.47126,0.53630,0.06886,
84.10156,4.17953,-4.81506,-172.95349,0.01147,0.18964,1.01141,,0.69796,-0.47728,0.53045,0.06066,
84.10938,4.20197,-5.05432,-173.16284,0.03217,0.19061,1.01080,,0.69902,-0.48323,0.52451,0.05244,
84.11719,4.29916,-5.03189,-173.02078,0.03198,0.19263,1.01758,,0.69999,-0.48910,0.51850,0.04422,
84.12500,4.45618,-4.63562,-172.94601,0.01587,0.19312,1.01257,,0.70085,-0.49490,0.51244,0.03597,
84.13281,4.35898,-4.82254,-173.11798,0.03796,0.19452,1.01733,,0.70161,-0.50063,0.50630,0.02772,
84.14063,4.36646,-4.60571,-172.84882,0.02655,0.19348,1.01349,,0.70227,-0.50629,0.50011,0.01947,
84.14844,4.27673,-4.76273,-172.96097,0.02252,0.19153,1.01355,,0.70284,-0.51188,0.49384,0.01121,
84.15625,4.30664,-4.74030,-172.84134,0.02155,0.18915,1.01959,,0.70330,-0.51739,0.48750,0.00296,
84.16406,4.26178,-4.63562,-173.00583,0.00842,0.18561,1.01471,,0.70367,-0.52284,0.48110,-0.00530,
84.17188,4.50104,-4.91974,-173.09555,0.02643,0.18774,1.00952,,0.70395,-0.52821,0.47462,-0.01357,
84.17969,4.28421,-4.68796,-172.84134,0.01117,0.18732,1.01093,,0.70412,-0.53350,0.46809,-0.02183,
84.18750,4.26926,-4.86740,-173.05069,0.02673,0.18817,1.00989,,0.70420,-0.53873,0.46148,-0.03009,
84.19531,4.36646,-4.94217,-173.00583,0.03027,0.19141,1.01801,,0.70419,-0.54387,0.45481,-0.03835,
84.20313,4.26178,-4.67300,-172.83386,0.01343,0.19135,1.01031,,0.70406,-0.54894,0.44809,-0.04660,
84.21094,4.40384,-4.95712,-172.97592,0.03619,0.19391,1.01959,,0.70386,-0.55393,0.44130,-0.05485,
84.21875,4.40384,-4.62814,-172.87125,0.02637,0.19501,1.02142,,0.70354,-0.55883,0.43446,-0.06310,
84.22656,4.38141,-4.63562,-172.87872,0.01910,0.19293,1.01379,,0.70313,-0.56366,0.42756,-0.07134,
84.23438,4.35150,-4.77768,-172.92358,0.02820,0.19342,1.01764,,0.70262,-0.56842,0.42060,-0.07957,
84.24219,4.29916,-4.73282,-172.83386,0.01770,0.19092,1.01233,,0.70201,-0.57309,0.41358,-0.08779,
84.25000,4.31412,-4.95712,-173.01331,0.02899,0.18799,1.01343,,0.70130,-0.57769,0.40649,-0.09600,
84.25781,4.37393,-4.68048,-172.78152,0.01813,0.18793,1.01953,,0.70050,-0.58219,0.39937,-0.10419,
84.26563,4.28421,-4.62067,-172.84882,0.00958,0.18671,1.01178,,0.69959,-0.58662,0.39219,-0.11238,
84.27344,4.38889,-4.76273,-173.01331,0.03021,0.18738,1.01416,,0.69860,-0.59097,0.38495,-0.12056,
84.28125,4.21692,-4.60571,-172.87872,0.01117,0.18817,1.01404,,0.69749,-0.59524,0.37767,-0.12872,
84.28906,4.38141,-4.74777,-172.83386,0.01581,0.18921,1.01068,,0.69630,-0.59941,0.37033,-0.13686,
84.29688,4.39636,-4.84497,-172.81891,0.02594,0.19305,1.02301,,0.69501,-0.60351,0.36293,-0.14498,
84.30469,4.20944,-4.71786,-172.94601,0.01520,0.19165,1.01117,,0.69362,-0.60753,0.35549,-0.15308,
84.31250,4.35898,-4.85245,-173.10303,0.03284,0.19366,1.01257,,0.69213,-0.61146,0.34799,-0.16118,
84.32031,4.24683,-4.66553,-172.77405,0.02124,0.19214,1.01483,,0.69055,-0.61530,0.34046,-0.16924,
84.32813,4.18701,-4.75525,-172.91611,0.02924,0.19128,1.01001,,0.68886,-0.61906,0.33288,-0.17728,
84.33594,4.35150,-4.81506,-172.95349,0.03235,0.19073,1.01587,,0.68709,-0.62273,0.32524,-0.18531,
84.34375,4.20197,-4.71039,-172.80396,0.01428,0.18805,1.01239,,0.68521,-0.62631,0.31758,-0.19330,
84.35156,4.41879,-4.90479,-172.99088,0.03296,0.18945,1.01709,,0.68325,-0.62981,0.30985,-0.20128,
84.35938,4.35150,-4.71786,-172.78900,0.01526,0.18884,1.01294,,0.68119,-0.63321,0.30210,-0.20922,
84.36719,4.23935,-4.57581,-172.89368,0.01520,0.18890,1.01105,,0.67902,-0.63652,0.29431,-0.21715,
84.37500,4.47113,-4.75525,-172.90863,0.02618,0.19232,1.01788,,0.67677,-0.63974,0.28647,-0.22504,
84.38281,4.14215,-4.66553,-172.87125,0.01074,0.19171,1.00909,,0.67442,-0.64289,0.27860,-0.23290,
84.39063,4.35150,-4.99451,-173.05817,0.02911,0.19128,1.01154,,0.67197,-0.64594,0.27067,-0.24073,
84.39844,4.30664,-4.63562,-172.88620,0.02240,0.19525,1.02069,,0.66944,-0.64889,0.26272,-0.24854,
84.40625,4.23187,-4.83749,-172.99088,0.02307,0.19342,1.00909,,0.66680,-0.65177,0.25473,-0.25630,
84.41406,4.39636,-5.03189,-173.05069,0.03418,0.19464,1.01691,,0.66408,-0.65455,0.24669,-0.26404,
84.42188,4.19449,-4.69543,-172.94601,0.01508,0.19257,1.01337,,0.66125,-0.65723,0.23864,-0.27174,
84.42969,4.20944,-4.85992,-173.09555,0.03204,0.19250,1.01123,,0.65833,-0.65983,0.23054,-0.27940,
84.43750,4.29169,-4.79263,-172.99835,0.02606,0.19293,1.02112,,0.65533,-0.66233,0.22242,-0.28703,
84.44531,4.29169,-4.66553,-173.01331,0.01227,0.19043,1.00977,,0.65223,-0.66474,0.21427,-0.29463,
84.45313,4.36646,-4.71786,-173.04321,0.02917,0.19189,1.01703,,0.64904,-0.66705,0.20609,-0.30219,
84.46094,4.26178,-4.75525,-172.93106,0.02289,0.19080,1.01746,,0.64576,-0.66927,0.19789,-0.30970,
84.46875,4.26178,-4.82254,-173.11050,0.02423,0.19147,1.00916,,0.64238,-0.67141,0.18965,-0.31717,
84.47656,4.37393,-4.56833,-172.90863,0.02417,0.19342,1.02014,,0.63892,-0.67343,0.18140,-0.32460,
84.48438,4.31412,-4.59824,-172.94601,0.01544,0.19202,1.01434,,0.63537,-0.67536,0.17313,-0.33199,
84.49219,4.35898,-4.97955,-173.07312,0.03503,0.19366,1.01343,,0.63173,-0.67721,0.16481,-0.33933,
84.50000,4.30664,-4.73282,-172.87872,0.01776,0.19366,1.01471,,0.62800,-0.67896,0.15649,-0.34662,
84.50781,4.32907,-4.73282,-172.87872,0.01385,0.19391,1.01093,,0.62418,-0.68061,0.14815,-0.35386,
84.51563,4.34402,-4.78516,-172.93106,0.03021,0.19476,1.01794,,0.62028,-0.68217,0.13979,-0.36106,
84.52344,4.12720,-4.76273,-172.86377,0.01245,0.19183,1.01117,,0.61628,-0.68364,0.13142,-0.36821,
84.53125,4.38141,-4.89731,-172.85629,0.03210,0.19128,1.01147,,0.61220,-0.68500,0.12302,-0.37530,
84.53906,4.38141,-4.73282,-172.66937,0.02393,0.19250,1.01880,,0.60804,-0.68627,0.11461,-0.38234,
84.54688,4.32159,-4.74030,-172.93854,0.02161,0.19061,1.00995,,0.60379,-0.68744,0.10619,-0.38934,
84.55469,4.34402,-4.79263,-172.75909,0.02618,0.19299,1.02087,,0.59946,-0.68852,0.09775,-0.39628,
84.56250,4.23187,-4.83002,-172.76657,0.01654,0.19348,1.01373,,0.59504,-0.68951,0.08931,-0.40316,
84.57031,4.31412,-4.89731,-172.87125,0.03265,0.19342,1.01074,,0.59053,-0.69040,0.08084,-0.40999,
84.57813,4.24683,-4.71786,-172.65442,0.01959,0.19391,1.01587,,0.58595,-0.69119,0.07238,-0.41676,
84.58594,4.19449,-4.77020,-172.73666,0.01129,0.19354,1.01080,,0.58128,-0.69188,0.06391,-0.42347,
84.59375,4.35150,-4.75525,-172.82639,0.02936,0.19330,1.01782,,0.57653,-0.69248,0.05543,-0.43014,
84.60156,4.26178,-4.62067,-172.73666,0.01080,0.19312,1.01544,,0.57169,-0.69298,0.04695,-0.43675,
84.60938,4.26178,-4.72534,-172.90863,0.02081,0.19324,1.01074,,0.56677,-0.69338,0.03845,-0.44330,
84.61719,4.41879,-4.66553,-172.74414,0.02209,0.19476,1.02032,,0.56179,-0.69368,0.02995,-0.44979,
84.62500,4.24683,-4.79263,-172.88620,0.01794,0.19330,1.01428,,0.55671,-0.69389,0.02145,-0.45621,
84.63281,4.38141,-4.92722,-173.04321,0.03430,0.19299,1.01172,,0.55155,-0.69401,0.01292,-0.46257,
84.64063,4.23935,-4.64310,-172.76657,0.02069,0.19189,1.01398,,0.54632,-0.69402,0.00443,-0.46888,
84.64844,4.43375,-4.93469,-173.08060,0.03070,0.19196,1.00769,,0.54101,-0.69394,-0.00410,-0.47511,
84.65625,4.43375,-4.83002,-172.99088,0.03009,0.19232,1.01514,,0.53562,-0.69376,-0.01261,-0.48129,
84.66406,4.23935,-4.79263,-172.91611,0.01178,0.19360,1.01440,,0.53016,-0.69349,-0.02111,-0.48740,
84.67188,4.23187,-4.77768,-173.02078,0.03064,0.19519,1.01624,,0.52461,-0.69313,-0.02961,-0.49344,
84.67969,4.30664,-4.72534,-172.96844,0.02014,0.19543,1.01788,,0.51899,-0.69266,-0.03811,-0.49942,
84.68750,4.31412,-4.88983,-172.99835,0.01569,0.19489,1.01300,,0.51330,-0.69210,-0.04660,-0.50532,
84.69531,4.41879,-4.78516,-173.00583,0.02527,0.19501,1.01721,,0.50755,-0.69143,-0.05509,-0.51116,
84.70313,4.29169,-4.75525,-172.97592,0.01630,0.19641,1.01355,,0.50171,-0.69067,-0.06356,-0.51693,
84.71094,4.37393,-5.00198,-173.14789,0.03284,0.19537,1.01178,,0.49580,-0.68983,-0.07204,-0.52262,
84.71875,4.33655,-4.74777,-172.94601,0.02008,0.19476,1.01788,,0.48982,-0.68887,-0.08048,-0.52825,
84.72656,4.39636,-4.83002,-173.18527,0.02570,0.19458,1.01312,,0.48377,-0.68782,-0.08893,-0.53381,
84.73438,4.48608,-4.83002,-173.18527,0.03302,0.19531,1.01471,,0.47766,-0.68668,-0.09737,-0.53929,
84.74219,4.26178,-4.74030,-172.96844,0.01465,0.19470,1.01495,,0.47147,-0.68544,-0.10578,-0.54470,
84.75000,4.36646,-4.95712,-173.14041,0.03442,0.19501,1.01141,,0.46522,-0.68411,-0.11418,-0.55003,
84.75781,4.39636,-4.68796,-172.95349,0.02496,0.19379,1.01746,,0.45890,-0.68267,-0.12256,-0.55529,
84.76563,4.37393,-4.80011,-173.04321,0.01581,0.19476,1.01532,,0.45252,-0.68115,-0.13092,-0.56047,
84.77344,4.36646,-4.74777,-172.99088,0.02606,0.19452,1.01349,,0.44608,-0.67953,-0.13925,-0.56557,
84.78125,4.35150,-4.83002,-172.85629,0.01837,0.19525,1.01636,,0.43957,-0.67781,-0.14756,-0.57059,
84.78906,4.27673,-4.82254,-173.03574,0.02777,0.19562,1.01312,,0.43299,-0.67601,-0.15586,-0.57553,
84.79688,4.38889,-4.77768,-172.94601,0.01831,0.19464,1.01483,,0.42636,-0.67410,-0.16413,-0.58040,
84.80469,4.36646,-4.74777,-172.95349,0.01129,0.19519,1.01556,,0.41967,-0.67211,-0.17237,-0.58518,
84.81250,4.31412,-4.85992,-173.10303,0.03247,0.19598,1.01331,,0.41290,-0.67002,-0.18060,-0.58989,
84.82031,4.33655,-4.83002,-172.99088,0.01501,0.19586,1.01569,,0.40609,-0.66784,-0.18879,-0.59451,
84.82813,4.34402,-4.85245,-173.00583,0.01862,0.19598,1.01654,,0.39921,-0.66556,-0.19696,-0.59905,
84.83594,4.31412,-4.77768,-172.95349,0.02905,0.19501,1.01276,,0.39228,-0.66319,-0.20509,-0.60351,
84.84375,4.29916,-4.77768,-172.99835,0.01459,0.19513,1.01270,,0.38529,-0.66073,-0.21319,-0.60789,
84.85156,4.37393,-4.83002,-173.02078,0.02942,0.19659,1.01245,,0.37825,-0.65818,-0.22127,-0.61218,
84.85938,4.34402,-4.80011,-172.89368,0.01996,0.19586,1.01550,,0.37116,-0.65554,-0.22930,-0.61638,
84.86719,4.26926,-4.71786,-173.01331,0.02234,0.19543,1.01776,,0.36400,-0.65280,-0.23731,-0.62051,
84.87500,4.33655,-4.78516,-173.01331,0.03088,0.19702,1.01337,,0.35680,-0.64998,-0.24528,-0.62455,
84.88281,4.41879,-4.83749,-172.91611,0.01239,0.19464,1.01495,,0.34955,-0.64706,-0.25322,-0.62849,
84.89063,4.35150,-4.85992,-173.21518,0.03253,0.19531,1.01141,,0.34224,-0.64406,-0.26113,-0.63236,
84.89844,4.35898,-4.74777,-173.12546,0.01563,0.19568,1.01337,,0.33488,-0.64096,-0.26900,-0.63614,
84.90625,4.26926,-4.85992,-172.99835,0.01245,0.19604,1.01746,,0.32747,-0.63778,-0.27682,-0.63983,
84.91406,4.32159,-4.80759,-172.94601,0.02686,0.19519,1.01227,,0.32002,-0.63451,-0.28460,-0.64342,
84.92188,4.38889,-4.87488,-172.84882,0.01068,0.19501,1.01788,,0.31253,-0.63115,-0.29233,-0.64692,
84.92969,4.30664,-4.85245,-172.98340,0.02563,0.19501,1.01587,,0.30499,-0.62771,-0.30003,-0.65034,
84.93750,4.38889,-4.78516,-172.90863,0.02161,0.19427,1.01239,,0.29741,-0.62417,-0.30768,-0.65367,
84.94531,4.17953,-4.76273,-172.95349,0.02002,0.19733,1.01465,,0.28978,-0.62055,-0.31528,-0.65691,
84.95313,4.28421,-4.93469,-173.06564,0.03387,0.19519,1.01288,,0.28210,-0.61685,-0.32285,-0.66006,
84.96094,4.26178,-4.71786,-172.81891,0.01477,0.19470,1.01538,,0.27439,-0.61306,-0.33036,-0.66312,
84.96875,4.29916,-4.89731,-172.97592,0.03027,0.19519,1.01355,,0.26664,-0.60919,-0.33783,-0.66608,
84.97656,4.32159,-4.88983,-172.98340,0.02405,0.19427,1.01178,,0.25885,-0.60524,-0.34525,-0.66895,
84.98438,4.32907,-4.71039,-172.86377,0.00812,0.19379,1.01709,,0.25103,-0.60119,-0.35261,-0.67173,
84.99219,4.26926,-4.85245,-172.98340,0.02808,0.19525,1.01282,,0.24316,-0.59707,-0.35993,-0.67441,
85.00000,4.32159,-4.74777,-172.88620,0.01733,0.19403,1.01410,,0.23527,-0.59286,-0.36719,-0.67701,
85.00781,4.38141,-4.85992,-173.07312,0.01807,0.19537,1.01550,,0.22733,-0.58857,-0.37441,-0.67950,
85.01563,4.32907,-4.75525,-172.95349,0.02026,0.19635,1.01294,,0.21936,-0.58420,-0.38157,-0.68191,
85.02344,4.44870,-4.82254,-172.84882,0.01312,0.19385,1.01550,,0.21137,-0.57975,-0.38867,-0.68421,
85.03125,4.35150,-4.95712,-173.09555,0.03156,0.19598,1.01276,,0.20333,-0.57522,-0.39573,-0.68642,
85.03906,4.29916,-4.69543,-173.00583,0.01520,0.19672,1.01385,,0.19527,-0.57060,-0.40272,-0.68855,
85.04688,4.37393,-4.74030,-172.98340,0.01111,0.19611,1.01721,,0.18719,-0.56591,-0.40966,-0.69057,
85.05469,4.26926,-4.89731,-173.00583,0.02802,0.19556,1.01184,,0.17907,-0.56114,-0.41653,-0.69250,
85.06250,4.31412,-4.72534,-172.96097,0.01007,0.19714,1.01886,,0.17092,-0.55629,-0.42335,-0.69433,
85.07031,4.32907,-4.81506,-173.08807,0.02032,0.19623,1.01782,,0.16275,-0.55137,-0.43011,-0.69607,
85.07813,4.32159,-4.74030,-172.95349,0.01837,0.19470,1.01025,,0.15456,-0.54637,-0.43680,-0.69771,
85.08594,4.30664,-4.72534,-173.08807,0.01337,0.19611,1.01910,,0.14634,-0.54129,-0.44343,-0.69926,
85.09375,4.32907,-4.75525,-173.02078,0.02405,0.19525,1.01233,,0.13810,-0.53614,-0.45000,-0.70070,
85.10156,4.41132,-4.77768,-172.91611,0.01385,0.19507,1.01245,,0.12985,-0.53092,-0.45651,-0.70204,
85.10938,4.28421,-4.88235,-173.11050,0.02808,0.19623,1.01392,,0.12156,-0.52563,-0.46295,-0.70329,
85.11719,4.42627,-4.68796,-172.93106,0.01764,0.19586,1.01337,,0.11327,-0.52026,-0.46932,-0.70444,
85.12500,4.47861,-4.80759,-172.96844,0.01068,0.19690,1.01996,,0.10496,-0.51482,-0.47563,-0.70549,
85.13281,4.32907,-5.00946,-173.15536,0.03094,0.19781,1.01086,,0.09662,-0.50931,-0.48188,-0.70644,
85.14063,4.36646,-4.78516,-172.96844,0.01141,0.19635,1.01776,,0.08827,-0.50374,-0.48805,-0.70730,
85.14844,4.47861,-4.76273,-173.01331,0.01733,0.19647,1.02008,,0.07992,-0.49809,-0.49415,-0.70805,
85.15625,4.23935,-4.85245,-172.91611,0.02301,0.19519,1.01062,,0.07154,-0.49238,-0.50018,-0.70871,
85.16406,4.37393,-4.74777,-172.96097,0.01123,0.19568,1.01965,,0.06316,-0.48659,-0.50613,-0.70927,
85.17188,4.29916,-4.99451,-172.95349,0.02893,0.19440,1.01459,,0.05476,-0.48076,-0.51202,-0.70973,
85.17969,4.26926,-4.75525,-172.93854,0.01550,0.19409,1.01196,,0.04636,-0.47484,-0.51783,-0.71009,
85.18750,4.31412,-4.84497,-173.04321,0.02173,0.19489,1.01648,,0.03795,-0.46886,-0.52357,-0.71036,
85.19531,4.26178,-4.82254,-172.99088,0.02899,0.19531,1.00940,,0.02952,-0.46282,-0.52923,-0.71052,
85.20313,4.32907,-4.71039,-172.93854,0.00922,0.19641,1.01898,,0.02111,-0.45671,-0.53481,-0.71059,
85.21094,4.33655,-4.94217,-173.07312,0.02948,0.19562,1.01093,,0.01267,-0.45055,-0.54033,-0.71055,
85.21875,4.31412,-4.70291,-172.98340,0.02026,0.19574,1.01025,,0.00424,-0.44432,-0.54577,-0.71042,
85.22656,4.39636,-4.74777,-173.07312,0.01154,0.19604,1.02118,,-0.00419,-0.43802,-0.55113,-0.71019,
85.23438,4.35898,-4.74030,-173.04321,0.02411,0.19373,1.00824,,-0.01263,-0.43167,-0.55641,-0.70986,
85.24219,4.41879,-4.75525,-172.97592,0.01434,0.19678,1.01270,,-0.02106,-0.42526,-0.56162,-0.70943,
85.25000,4.24683,-5.02441,-173.23013,0.02423,0.19666,1.01337,,-0.02951,-0.41880,-0.56675,-0.70890,
85.25781,4.37393,-4.71039,-173.05817,0.01691,0.19366,1.01312,,-0.03794,-0.41227,-0.57179,-0.70827,
85.26563,4.41879,-4.65805,-173.11798,0.00720,0.19617,1.01935,,-0.04637,-0.40568,-0.57676,-0.70755,
85.27344,4.33655,-5.00946,-173.18527,0.02863,0.19513,1.00842,,-0.05481,-0.39905,-0.58165,-0.70671,
85.28125,4.41879,-4.71039,-173.09555,0.00909,0.19397,1.01709,,-0.06322,-0.39235,-0.58645,-0.70579,
85.28906,4.31412,-5.02441,-173.29742,0.02997,0.19427,1.01208,,-0.07165,-0.38561,-0.59117,-0.70476,
85.29688,4.38889,-4.71039,-173.14789,0.02374,0.19318,1.00964,,-0.08005,-0.37881,-0.59581,-0.70364,
85.30469,4.41879,-4.83749,-173.04321,0.00751,0.19495,1.01794,,-0.08845,-0.37197,-0.60036,-0.70241,
85.31250,4.27673,-4.82254,-173.17780,0.02820,0.19415,1.00726,,-0.09683,-0.36507,-0.60482,-0.70110,
85.32031,4.40384,-4.77020,-173.08807,0.01678,0.19464,1.01349,,-0.10520,-0.35812,-0.60920,-0.69968,
85.32813,4.29169,-4.80759,-173.14041,0.01953,0.19525,1.01709,,-0.11356,-0.35113,-0.61350,-0.69817,
85.33594,4.35898,-4.80011,-173.06564,0.01862,0.19360,1.01202,,-0.12191,-0.34409,-0.61770,-0.69655,
85.34375,4.34402,-4.77768,-172.97592,0.00854,0.19562,1.01868,,-0.13023,-0.33700,-0.62182,-0.69485,
85.35156,4.24683,-4.94965,-173.21518,0.02856,0.19385,1.01337,,-0.13855,-0.32987,-0.62585,-0.69304,
85.35938,4.43375,-4.70291,-172.98340,0.01215,0.19464,1.01587,,-0.14684,-0.32269,-0.62979,-0.69114,
85.36719,4.34402,-4.74030,-172.99088,0.00873,0.19373,1.01978,,-0.15510,-0.31548,-0.63364,-0.68914,
85.37500,4.35150,-4.94217,-173.02826,0.02521,0.19196,1.00836,,-0.16336,-0.30822,-0.63741,-0.68704,
85.38281,4.35898,-4.71039,-172.95349,0.00726,0.19421,1.01874,,-0.17158,-0.30092,-0.64108,-0.68485,
85.39063,4.29169,-4.85992,-173.08807,0.02081,0.19470,1.01532,,-0.17980,-0.29358,-0.64466,-0.68256,
85.39844,4.38889,-4.63562,-172.89368,0.01752,0.19299,1.01263,,-0.18797,-0.28620,-0.64816,-0.68018,
85.40625,4.30664,-4.81506,-173.08807,0.01398,0.19458,1.01831,,-0.19613,-0.27878,-0.65156,-0.67771,
85.41406,4.26926,-5.07675,-173.18527,0.02881,0.19446,1.01208,,-0.20428,-0.27133,-0.65486,-0.67513,
85.42188,4.42627,-4.72534,-172.95349,0.01147,0.19336,1.01764,,-0.21238,-0.26384,-0.65809,-0.67246,
85.42969,4.45618,-5.06927,-173.14041,0.02600,0.19427,1.01227,,-0.22047,-0.25633,-0.66121,-0.66969,
85.43750,4.32907,-4.89731,-173.12546,0.02386,0.19434,1.01031,,-0.22853,-0.24877,-0.66425,-0.66683,
85.44531,4.40384,-4.80011,-173.06564,0.00714,0.19336,1.01892,,-0.23655,-0.24118,-0.66719,-0.66388,
85.45313,4.45618,-4.98703,-173.17032,0.02692,0.19324,1.00946,,-0.24455,-0.23356,-0.67004,-0.66083,
85.46094,4.47861,-4.65057,-173.10303,0.00769,0.19336,1.01758,,-0.25250,-0.22590,-0.67280,-0.65769,
85.46875,4.47861,-4.85245,-173.20770,0.01648,0.19336,1.01636,,-0.26043,-0.21821,-0.67547,-0.65445,
85.47656,4.43375,-4.77020,-173.14041,0.01935,0.19312,1.01318,,-0.26831,-0.21050,-0.67804,-0.65113,
85.48438,4.40384,-4.85245,-173.20770,0.01019,0.19312,1.01788,,-0.27617,-0.20275,-0.68051,-0.64771,
85.49219,4.26178,-5.02441,-173.34976,0.02808,0.19489,1.01154,,-0.28401,-0.19498,-0.68288,-0.64420,
85.50000,4.43375,-4.65805,-173.08807,0.01349,0.19458,1.01440,,-0.29178,-0.18719,-0.68516,-0.64061,
85.50781,4.32159,-4.92722,-173.33481,0.02454,0.19385,1.01410,,-0.29953,-0.17936,-0.68734,-0.63692,
85.51563,4.43375,-4.88235,-173.19275,0.02551,0.19299,1.01050,,-0.30723,-0.17153,-0.68943,-0.63315,
85.52344,4.40384,-4.68048,-173.21518,0.00726,0.19263,1.01776,,-0.31489,-0.16365,-0.69143,-0.62928,
85.53125,4.41879,-5.11414,-173.34229,0.03009,0.19312,1.01288,,-0.32252,-0.15577,-0.69332,-0.62532,
85.53906,4.31412,-4.73282,-173.11050,0.02051,0.19336,1.01398,,-0.33009,-0.14787,-0.69511,-0.62129,
85.54688,4.35898,-4.92722,-173.17780,0.01331,0.19305,1.01685,,-0.33762,-0.13995,-0.69681,-0.61716,
85.55469,4.35150,-4.86740,-173.08060,0.02271,0.19202,1.01270,,-0.34510,-0.13202,-0.69841,-0.61295,
85.56250,4.40384,-4.68796,-173.05069,0.01215,0.19305,1.01270,,-0.35253,-0.12406,-0.69991,-0.60865,
85.57031,4.40384,-5.09171,-173.24509,0.02722,0.19354,1.01349,,-0.35993,-0.11610,-0.70132,-0.60426,
85.57813,4.40384,-4.79263,-172.99835,0.01617,0.19202,1.01434,,-0.36726,-0.10812,-0.70262,-0.59979,
85.58594,4.44122,-4.76273,-173.09555,0.00659,0.19220,1.01630,,-0.37454,-0.10012,-0.70384,-0.59524,
85.59375,4.41879,-4.97955,-173.14789,0.02917,0.19318,1.01208,,-0.38179,-0.09212,-0.70495,-0.59060,
85.60156,4.32907,-4.70291,-173.03574,0.00861,0.19067,1.01727,,-0.38896,-0.08410,-0.70596,-0.58588,
85.60938,4.35898,-4.72534,-173.11798,0.01404,0.19269,1.01764,,-0.39609,-0.07607,-0.70688,-0.58108,
85.61719,4.43375,-4.89731,-173.03574,0.02155,0.19226,1.01276,,-0.40316,-0.06804,-0.70769,-0.57619,
85.62500,4.44870,-4.80759,-173.14041,0.00665,0.19226,1.01434,,-0.41019,-0.05999,-0.70841,-0.57122,
85.63281,4.29916,-5.04684,-173.15536,0.02686,0.19366,1.01086,,-0.41717,-0.05195,-0.70902,-0.56618,
85.64063,4.34402,-4.74777,-172.98340,0.01294,0.19104,1.01508,,-0.42407,-0.04389,-0.70954,-0.56106,
85.64844,4.38889,-5.04684,-173.18527,0.02222,0.19092,1.01300,,-0.43093,-0.03584,-0.70996,-0.55585,
85.65625,4.38141,-4.77768,-173.11798,0.01685,0.19208,1.01593,,-0.43772,-0.02778,-0.71028,-0.55057,
85.66406,4.39636,-4.75525,-173.13293,0.00726,0.19147,1.01575,,-0.44445,-0.01971,-0.71051,-0.54521,
85.67188,4.46365,-5.02441,-173.29742,0.02917,0.19275,1.01318,,-0.45114,-0.01165,-0.71063,-0.53976,
85.67969,4.33655,-4.62067,-173.08060,0.00970,0.19128,1.01514,,-0.45774,-0.00357,-0.71066,-0.53425,
85.68750,4.32907,-4.77768,-173.21518,0.01117,0.19086,1.01422,,-0.46429,0.00450,-0.71058,-0.52866,
85.69531,4.46365,-4.82254,-173.15536,0.02393,0.19208,1.01544,,-0.47078,0.01256,-0.71042,-0.52299,
85.70313,4.31412,-4.78516,-173.11050,0.00848,0.19073,1.01385,,-0.47720,0.02062,-0.71014,-0.51726,
85.71094,4.40384,-4.92722,-173.31985,0.02448,0.19153,1.01276,,-0.48356,0.02868,-0.70977,-0.51144,
85.71875,4.35150,-4.83749,-173.04321,0.01801,0.19104,1.01740,,-0.48985,0.03672,-0.70930,-0.50556,
85.72656,4.47861,-4.97955,-173.23761,0.01855,0.19189,1.01270,,-0.49609,0.04475,-0.70873,-0.49960,
85.73438,4.51599,-5.03189,-173.16284,0.03143,0.19312,1.01367,,-0.50225,0.05277,-0.70806,-0.49356,
85.74219,4.36646,-4.71039,-173.01331,0.00983,0.19220,1.01685,,-0.50833,0.06080,-0.70730,-0.48747,
85.75000,4.44122,-5.04684,-173.23761,0.03070,0.19257,1.01282,,-0.51436,0.06880,-0.70643,-0.48130,
85.75781,4.52347,-4.77020,-173.05069,0.02484,0.19104,1.01685,,-0.52030,0.07679,-0.70548,-0.47507,
85.76563,4.33655,-4.71786,-173.04321,0.00739,0.19202,1.01398,,-0.52617,0.08478,-0.70442,-0.46877,
85.77344,4.49356,-4.93469,-173.10303,0.02869,0.19122,1.01605,,-0.53197,0.09275,-0.70327,-0.46240,
85.78125,4.49356,-4.78516,-173.08060,0.01624,0.19080,1.01465,,-0.53770,0.10070,-0.70202,-0.45596,
85.78906,4.30664,-4.84497,-173.15536,0.01971,0.19165,1.01190,,-0.54336,0.10865,-0.70067,-0.44947,
85.79688,4.41132,-4.78516,-173.01331,0.02045,0.19196,1.01538,,-0.54893,0.11657,-0.69922,-0.44291,
85.80469,4.35898,-4.65057,-172.95349,0.00873,0.19092,1.01556,,-0.55443,0.12447,-0.69768,-0.43630,
85.81250,4.49356,-5.06927,-173.17032,0.03223,0.19269,1.01508,,-0.55987,0.13235,-0.69604,-0.42961,
85.82031,4.35898,-4.79263,-172.96097,0.01074,0.19043,1.01392,,-0.56522,0.14021,-0.69430,-0.42287,
85.82813,4.37393,-4.70291,-172.99835,0.02960,0.19049,1.01147,,-0.57048,0.14806,-0.69247,-0.41606,
85.83594,4.41879,-4.84497,-173.05069,0.02631,0.19110,1.01593,,-0.57568,0.15588,-0.69054,-0.40920,
85.84375,4.39636,-4.83002,-173.02826,0.00818,0.19025,1.01135,,-0.58079,0.16367,-0.68852,-0.40228,
85.85156,4.43375,-4.90479,-173.20023,0.03046,0.19171,1.01678,,-0.58584,0.17145,-0.68640,-0.39529,
85.85938,4.39636,-4.77020,-172.97592,0.01910,0.19171,1.01794,,-0.59079,0.17919,-0.68419,-0.38826,
85.86719,4.44870,-4.80011,-173.12546,0.01746,0.19061,1.01349,,-0.59567,0.18691,-0.68188,-0.38116,
85.87500,4.38889,-4.74030,-173.12546,0.02380,0.19196,1.01947,,-0.60046,0.19461,-0.67948,-0.37402,
85.88281,4.35150,-4.71786,-173.02826,0.01202,0.19177,1.01337,,-0.60516,0.20228,-0.67698,-0.36682,
85.89063,4.52347,-5.05432,-173.25256,0.02881,0.19135,1.01202,,-0.60980,0.20991,-0.67438,-0.35956,
85.89844,4.38141,-4.81506,-173.00583,0.01556,0.18927,1.01434,,-0.61435,0.21751,-0.67170,-0.35226,
85.90625,4.37393,-4.74030,-173.02826,0.00854,0.18964,1.01196,,-0.61880,0.22508,-0.66893,-0.34490,
85.91406,4.47861,-4.88235,-173.17780,0.03064,0.19177,1.01599,,-0.62318,0.23262,-0.66606,-0.33749,
85.92188,4.40384,-4.71786,-173.02078,0.00916,0.18927,1.01331,,-0.62746,0.24013,-0.66310,-0.33004,
85.92969,4.41879,-4.80759,-173.17780,0.01886,0.19208,1.01184,,-0.63167,0.24760,-0.66005,-0.32254,
85.93750,4.29916,-4.80759,-173.00583,0.02295,0.19171,1.02020,,-0.63578,0.25504,-0.65690,-0.31500,
85.94531,4.38141,-4.65805,-172.99835,0.01312,0.18994,1.01434,,-0.63979,0.26243,-0.65368,-0.30741,
85.95313,4.45618,-4.98703,-173.05817,0.03009,0.19128,1.01172,,-0.64374,0.26978,-0.65035,-0.29977,
85.96094,4.28421,-4.83749,-172.84134,0.01459,0.19019,1.01257,,-0.64758,0.27710,-0.64693,-0.29211,
85.96875,4.50104,-4.92722,-173.00583,0.02704,0.18909,1.01172,,-0.65135,0.28437,-0.64343,-0.28439,
85.97656,4.56085,-4.95712,-172.99835,0.03009,0.19122,1.01703,,-0.65503,0.29159,-0.63984,-0.27662,
85.98438,4.41132,-4.63562,-172.87125,0.00861,0.18951,1.01257,,-0.65860,0.29878,-0.63617,-0.26883,
85.99219,4.53842,-5.04684,-173.00583,0.03156,0.19135,1.01801,,-0.66210,0.30592,-0.63240,-0.26098,
86.00000,4.43375,-4.71786,-172.92358,0.02209,0.19183,1.01917,,-0.66549,0.31302,-0.62855,-0.25311,
86.00781,4.36646,-4.79263,-172.90863,0.01398,0.19104,1.01093,,-0.66879,0.32008,-0.62461,-0.24520,
86.01563,4.42627,-4.75525,-172.84882,0.02380,0.19183,1.02063,,-0.67200,0.32709,-0.62059,-0.23725,
86.02344,4.44122,-4.63562,-172.97592,0.01062,0.18951,1.01025,,-0.67512,0.33406,-0.61649,-0.22927,
86.03125,4.50851,-4.91226,-173.13293,0.02936,0.19073,1.00977,,-0.67815,0.34097,-0.61229,-0.22124,
86.03906,4.29169,-4.70291,-172.87125,0.01819,0.18994,1.01630,,-0.68108,0.34785,-0.60802,-0.21320,
86.04688,4.44122,-4.77768,-173.07312,0.02380,0.19067,1.01050,,-0.68392,0.35467,-0.60366,-0.20511,
86.05469,4.56833,-4.85992,-173.07312,0.03040,0.19122,1.01837,,-0.68667,0.36143,-0.59921,-0.19699,
86.06250,4.29169,-4.71786,-172.76657,0.01202,0.19061,1.01306,,-0.68931,0.36815,-0.59469,-0.18886,
86.07031,4.51599,-4.98703,-173.08060,0.03339,0.19171,1.01453,,-0.69187,0.37481,-0.59007,-0.18069,
86.07813,4.38141,-4.83002,-172.95349,0.02441,0.19086,1.02106,,-0.69433,0.38142,-0.58538,-0.17249,
86.08594,4.29916,-4.69543,-172.88620,0.01276,0.19141,1.00983,,-0.69669,0.38798,-0.58061,-0.16428,
86.09375,4.41879,-4.85992,-173.03574,0.02771,0.19238,1.01917,,-0.69896,0.39448,-0.57576,-0.15603,
86.10156,4.34402,-4.66553,-172.87125,0.01929,0.19025,1.01733,,-0.70112,0.40093,-0.57084,-0.14776,
86.10938,4.40384,-4.93469,-172.99088,0.02679,0.19183,1.00916,,-0.70319,0.40732,-0.56582,-0.13947,
86.11719,4.31412,-4.68796,-172.78900,0.02283,0.19348,1.01862,,-0.70516,0.41365,-0.56075,-0.13117,
86.12500,4.40384,-4.60571,-172.87125,0.01227,0.18927,1.01324,,-0.70703,0.41992,-0.55560,-0.12284,
86.13281,4.44870,-4.83002,-173.01331,0.03265,0.19073,1.01508,,-0.70881,0.42613,-0.55036,-0.11448,
86.14063,4.38889,-4.90479,-172.81891,0.01654,0.19147,1.01495,,-0.71050,0.43227,-0.54504,-0.10612,
86.14844,4.35898,-4.80011,-172.84134,0.01532,0.19110,1.01196,,-0.71208,0.43836,-0.53966,-0.09774,
86.15625,4.51599,-4.78516,-172.94601,0.02783,0.19293,1.01855,,-0.71356,0.44438,-0.53420,-0.08934,
86.16406,4.27673,-4.74030,-172.80396,0.01111,0.19049,1.00928,,-0.71494,0.45035,-0.52867,-0.08093,
86.17188,4.36646,-5.00946,-172.95349,0.02887,0.19049,1.01044,,-0.71623,0.45625,-0.52305,-0.07251,
86.17969,4.38141,-4.59824,-172.69180,0.01953,0.19171,1.01697,,-0.71741,0.46208,-0.51739,-0.06408,
86.18750,4.41132,-4.78516,-172.89368,0.02246,0.19141,1.00952,,-0.71850,0.46785,-0.51164,-0.05563,
86.19531,4.50104,-4.86740,-172.91611,0.03290,0.19238,1.01654,,-0.71949,0.47355,-0.50582,-0.04717,
86.20313,4.38141,-4.71039,-172.69180,0.01422,0.19012,1.01410,,-0.72038,0.47918,-0.49995,-0.03871,
86.21094,4.44870,-4.91974,-172.89368,0.03033,0.19220,1.01105,,-0.72117,0.48475,-0.49398,-0.03024,
86.21875,4.38141,-4.77768,-172.74414,0.01489,0.19171,1.01501,,-0.72186,0.49024,-0.48797,-0.02176,
86.22656,4.32159,-4.67300,-172.89368,0.01276,0.19147,1.00897,,-0.72244,0.49568,-0.48189,-0.01328,
86.23438,4.40384,-4.68048,-172.96844,0.02655,0.19397,1.01929,,-0.72292,0.50104,-0.47573,-0.00478,
86.24219,4.38889,-4.72534,-172.92358,0.01013,0.18982,1.01123,,-0.72330,0.50633,-0.46952,0.00372,
86.25000,4.38141,-4.78516,-173.10303,0.02228,0.19165,1.00861,,-0.72359,0.51156,-0.46322,0.01222,
86.25781,4.47861,-4.74777,-172.91611,0.02112,0.19348,1.02002,,-0.72378,0.51670,-0.45688,0.02072,
86.26563,4.32907,-4.84497,-172.95349,0.01733,0.19104,1.01099,,-0.72386,0.52178,-0.45046,0.02921,
86.27344,4.47861,-4.85245,-173.09555,0.03320,0.19324,1.01318,,-0.72385,0.52678,-0.44398,0.03771,
86.28125,4.38889,-4.70291,-172.99088,0.01556,0.19135,1.01410,,-0.72373,0.53171,-0.43745,0.04621,
86.28906,4.48608,-4.80759,-173.21518,0.03003,0.19263,1.00964,,-0.72351,0.53657,-0.43085,0.05471,
86.29688,4.42627,-4.79263,-173.06564,0.02771,0.19397,1.01917,,-0.72319,0.54135,-0.42419,0.06320,
86.30469,4.40384,-4.68048,-172.93854,0.01215,0.19141,1.01129,,-0.72277,0.54605,-0.41749,0.07168,
86.31250,4.29916,-4.85245,-173.02078,0.03247,0.19244,1.01721,,-0.72225,0.55068,-0.41071,0.08014,
86.32031,4.35898,-4.68048,-172.87872,0.02228,0.19403,1.01923,,-0.72162,0.55522,-0.40390,0.08860,
86.32813,4.35898,-4.77020,-173.01331,0.02161,0.19238,1.01141,,-0.72090,0.55970,-0.39702,0.09705,
86.33594,4.42627,-4.77020,-172.88620,0.02673,0.19287,1.02100,,-0.72008,0.56408,-0.39009,0.10548,
86.34375,4.30664,-4.67300,-172.78900,0.01642,0.19226,1.01447,,-0.71915,0.56839,-0.38312,0.11390,
86.35156,4.37393,-4.98703,-173.05817,0.03296,0.19312,1.01062,,-0.71813,0.57263,-0.37607,0.12231,
86.35938,4.38889,-4.65057,-172.85629,0.01880,0.19189,1.01715,,-0.71700,0.57677,-0.36899,0.13070,
86.36719,4.29169,-4.70291,-172.75909,0.01398,0.19324,1.00885,,-0.71578,0.58084,-0.36186,0.13907,
86.37500,4.35150,-4.79263,-172.90863,0.03064,0.19360,1.01752,,-0.71445,0.58483,-0.35468,0.14743,
86.38281,4.43375,-4.70291,-172.78152,0.01227,0.19196,1.01477,,-0.71303,0.58873,-0.34745,0.15576,
86.39063,4.44870,-4.98703,-172.92358,0.03235,0.19379,1.01343,,-0.71151,0.59255,-0.34016,0.16408,
86.39844,4.35150,-4.62067,-172.85629,0.02289,0.19366,1.01849,,-0.70989,0.59629,-0.33285,0.17238,
86.40625,4.36646,-4.72534,-172.86377,0.01654,0.19226,1.01337,,-0.70816,0.59994,-0.32548,0.18066,
86.41406,4.43375,-4.67300,-172.81143,0.02545,0.19342,1.01941,,-0.70634,0.60351,-0.31807,0.18891,
86.42188,4.31412,-4.65057,-172.84134,0.01685,0.19208,1.01501,,-0.70442,0.60699,-0.31063,0.19714,
86.42969,4.39636,-4.97955,-173.03574,0.02911,0.19263,1.01147,,-0.70240,0.61040,-0.30311,0.20535,
86.43750,4.30664,-4.65057,-172.81143,0.01868,0.19342,1.01660,,-0.70028,0.61371,-0.29558,0.21352,
86.44531,4.38141,-4.68796,-172.78900,0.01038,0.19336,1.01434,,-0.69807,0.61694,-0.28801,0.22167,
86.45313,4.32907,-4.90479,-172.99835,0.03046,0.19421,1.01544,,-0.69575,0.62009,-0.28038,0.22979,
86.46094,4.41879,-4.77020,-172.84134,0.01337,0.19330,1.01520,,-0.69335,0.62314,-0.27273,0.23788,
86.46875,4.39636,-4.75525,-173.01331,0.01746,0.19269,1.01404,,-0.69084,0.62611,-0.26503,0.24595,
86.47656,4.44122,-4.67300,-172.94601,0.02362,0.19354,1.01959,,-0.68823,0.62899,-0.25730,0.25398,
86.48438,4.34402,-4.65805,-172.96844,0.01324,0.19336,1.01263,,-0.68553,0.63178,-0.24955,0.26198,
86.49219,4.43375,-4.86740,-173.05817,0.03070,0.19269,1.01068,,-0.68273,0.63448,-0.24174,0.26995,
86.50000,4.41879,-4.68048,-172.95349,0.01849,0.19373,1.01563,,-0.67984,0.63710,-0.23391,0.27788,
86.50781,4.35150,-4.81506,-173.06564,0.02631,0.19379,1.01318,,-0.67684,0.63963,-0.22604,0.28577,
86.51563,4.35898,-4.75525,-173.02826,0.03113,0.19489,1.01678,,-0.67376,0.64207,-0.21815,0.29363,
86.52344,4.41879,-4.71786,-172.90863,0.01306,0.19403,1.01495,,-0.67058,0.64441,-0.21023,0.30144,
86.53125,4.47113,-4.77020,-173.02826,0.03186,0.19604,1.01465,,-0.66731,0.64666,-0.20228,0.30922,
86.53906,4.43375,-4.68796,-172.87125,0.02350,0.19366,1.01721,,-0.66394,0.64882,-0.19431,0.31695,
86.54688,4.38889,-4.69543,-173.02826,0.01404,0.19440,1.01343,,-0.66048,0.65089,-0.18631,0.32465,
86.55469,4.40384,-4.74030,-172.96097,0.02698,0.19409,1.01532,,-0.65692,0.65288,-0.17828,0.33230,
86.56250,4.40384,-4.78516,-172.89368,0.01678,0.19415,1.01233,,-0.65328,0.65477,-0.17023,0.33989,
86.57031,4.47861,-4.89731,-173.11798,0.02820,0.19397,1.01361,,-0.64954,0.65657,-0.16215,0.34745,
86.57813,4.41879,-4.66553,-172.93854,0.01941,0.19348,1.01550,,-0.64571,0.65827,-0.15406,0.35497,
86.58594,4.38141,-4.69543,-173.04321,0.02069,0.19550,1.01538,,-0.64179,0.65989,-0.14595,0.36243,
86.59375,4.37393,-4.85245,-173.06564,0.03131,0.19617,1.01538,,-0.63777,0.66141,-0.13781,0.36985,
86.60156,4.42627,-4.74030,-172.96844,0.01349,0.19421,1.01379,,-0.63367,0.66284,-0.12966,0.37721,
86.60938,4.44122,-4.93469,-173.18527,0.03119,0.19482,1.01215,,-0.62948,0.66418,-0.12147,0.38453,
86.61719,4.46365,-4.64310,-173.03574,0.02454,0.19464,1.01385,,-0.62520,0.66542,-0.11329,0.39180,
86.62500,4.37393,-4.77768,-172.96844,0.01007,0.19580,1.01465,,-0.62083,0.66657,-0.10510,0.39901,
86.63281,4.36646,-4.77020,-173.00583,0.02722,0.19476,1.01495,,-0.61637,0.66763,-0.09689,0.40616,
86.64063,4.25430,-4.65057,-172.84882,0.01910,0.19495,1.01361,,-0.61182,0.66860,-0.08868,0.41326,
86.64844,4.40384,-4.77020,-173.07312,0.02313,0.19318,1.01563,,-0.60719,0.66947,-0.08044,0.42031,
86.65625,4.35150,-4.65805,-172.97592,0.02112,0.19427,1.01447,,-0.60247,0.67024,-0.07221,0.42730,
86.66406,4.41879,-4.67300,-172.90863,0.01141,0.19495,1.01465,,-0.59767,0.67092,-0.06396,0.43423,
86.67188,4.41879,-4.73282,-173.10303,0.03241,0.19446,1.01263,,-0.59279,0.67151,-0.05570,0.44110,
86.67969,4.38141,-4.77020,-172.93854,0.01569,0.19440,1.01178,,-0.58782,0.67201,-0.04744,0.44791,
86.68750,4.37393,-4.65805,-172.99835,0.01343,0.19458,1.01703,,-0.58276,0.67241,-0.03918,0.45467,
86.69531,4.41879,-4.71039,-173.00583,0.02655,0.19415,1.01147,,-0.57763,0.67271,-0.03090,0.46136,
86.70313,4.42627,-4.69543,-172.87872,0.01147,0.19598,1.01636,,-0.57241,0.67292,-0.02263,0.46798,
86.71094,4.32907,-4.68796,-173.06564,0.02557,0.19653,1.01556,,-0.56711,0.67304,-0.01436,0.47455,
86.71875,4.40384,-4.64310,-172.83386,0.02045,0.19482,1.01416,,-0.56173,0.67307,-0.00609,0.48104,
86.72656,4.32159,-4.59824,-172.91611,0.01807,0.19482,1.01727,,-0.55627,0.67300,0.00217,0.48748,
86.73438,4.44122,-4.80759,-173.02078,0.03162,0.19543,1.01239,,-0.55073,0.67283,0.01045,0.49384,
86.74219,4.44122,-4.70291,-172.84134,0.01422,0.19415,1.01398,,-0.54513,0.67257,0.01871,0.50013,
86.75000,4.55338,-4.91974,-173.05069,0.03113,0.19470,1.01514,,-0.53944,0.67222,0.02700,0.50636,
86.75781,4.38889,-4.65057,-172.93854,0.01611,0.19336,1.00861,,-0.53367,0.67178,0.03525,0.51252,
86.76563,4.34402,-4.65805,-172.89368,0.01038,0.19409,1.01733,,-0.52782,0.67124,0.04350,0.51861,
86.77344,4.35150,-4.69543,-172.87872,0.02991,0.19458,1.01324,,-0.52190,0.67061,0.05173,0.52462,
86.78125,4.40384,-4.66553,-172.76657,0.01166,0.19495,1.01917,,-0.51592,0.66988,0.05996,0.53057,
86.78906,4.39636,-4.59824,-172.96097,0.01917,0.19409,1.01947,,-0.50985,0.66905,0.06818,0.53644,
86.79688,4.35898,-4.73282,-172.90863,0.01990,0.19464,1.01111,,-0.50371,0.66814,0.07639,0.54224,
86.80469,4.39636,-4.74030,-172.97592,0.01379,0.19519,1.01807,,-0.49750,0.66714,0.08459,0.54797,
86.81250,4.32159,-4.89731,-173.14041,0.03040,0.19452,1.01257,,-0.49120,0.66605,0.09279,0.55362,
86.82031,4.42627,-4.68796,-172.80396,0.01416,0.19403,1.01312,,-0.48486,0.66485,0.10096,0.55919,
86.82813,4.40384,-4.84497,-173.02826,0.02557,0.19727,1.01440,,-0.47843,0.66357,0.10912,0.56468,
86.83594,4.35150,-4.75525,-173.00583,0.02679,0.19476,1.01093,,-0.47194,0.66220,0.11727,0.57010,
86.84375,4.48608,-4.80759,-172.87872,0.00958,0.19562,1.01984,,-0.46538,0.66073,0.12539,0.57544,
86.85156,4.35150,-4.86740,-173.05069,0.02972,0.19556,1.01105,,-0.45875,0.65918,0.13350,0.58069,
86.85938,4.38141,-4.67300,-172.93106,0.02081,0.19397,1.01031,,-0.45206,0.65752,0.14158,0.58588,
86.86719,4.37393,-4.68048,-173.11798,0.01410,0.19659,1.02026,,-0.44530,0.65578,0.14965,0.59099,
86.87500,4.40384,-4.62814,-173.06564,0.02399,0.19519,1.01086,,-0.43848,0.65394,0.15769,0.59601,
86.88281,4.38141,-4.69543,-173.02078,0.01434,0.19336,1.01544,,-0.43160,0.65201,0.16571,0.60095,
86.89063,4.20197,-4.90479,-173.20023,0.02716,0.19568,1.01440,,-0.42464,0.65000,0.17370,0.60581,
86.89844,4.40384,-4.72534,-173.07312,0.01526,0.19550,1.01062,,-0.41763,0.64789,0.18167,0.61058,
86.90625,4.50104,-4.63562,-173.00583,0.00903,0.19507,1.01923,,-0.41057,0.64569,0.18961,0.61528,
86.91406,4.28421,-4.80011,-173.09555,0.03027,0.19513,1.01044,,-0.40344,0.64341,0.19753,0.61988,
86.92188,4.45618,-4.82254,-172.99835,0.00995,0.19543,1.01837,,-0.39626,0.64103,0.20541,0.62439,
86.92969,4.38889,-4.77020,-173.13293,0.01788,0.19617,1.01996,,-0.38901,0.63857,0.21327,0.62882,
86.93750,4.38141,-4.68048,-173.00583,0.02405,0.19312,1.01141,,-0.38172,0.63601,0.22109,0.63317,
86.94531,4.38889,-4.65057,-173.01331,0.01178,0.19635,1.02100,,-0.37437,0.63336,0.22887,0.63743,
86.95313,4.47113,-4.85245,-173.05069,0.02502,0.19330,1.00830,,-0.36696,0.63063,0.23663,0.64159,
86.96094,4.43375,-4.70291,-172.87125,0.01624,0.19391,1.01306,,-0.35952,0.62782,0.24435,0.64567,
86.96875,4.38141,-4.79263,-173.02078,0.02222,0.19507,1.01782,,-0.35201,0.62491,0.25203,0.64966,
86.97656,4.31412,-4.63562,-172.90115,0.01666,0.19318,1.01135,,-0.34445,0.62192,0.25967,0.65356,
86.98438,4.52347,-4.64310,-172.87872,0.00714,0.19507,1.02008,,-0.33685,0.61884,0.26727,0.65737,
86.99219,4.29169,-4.77768,-173.11050,0.02814,0.19379,1.01172,,-0.32919,0.61567,0.27484,0.66109,
87.00000,4.40384,-4.68048,-172.90863,0.01105,0.19312,1.01624,,-0.32149,0.61242,0.28236,0.66472,
87.00781,4.45618,-4.65057,-172.90863,0.01117,0.19458,1.02264,,-0.31375,0.60909,0.28985,0.66825,
87.01563,4.20197,-4.80759,-172.93106,0.02448,0.19354,1.00983,,-0.30595,0.60568,0.29728,0.67170,
87.02344,4.39636,-4.54590,-172.98340,0.00745,0.19135,1.01501,,-0.29811,0.60217,0.30468,0.67505,
87.03125,4.48608,-4.83002,-173.05817,0.02399,0.19519,1.01752,,-0.29023,0.59858,0.31204,0.67830,
87.03906,4.42627,-4.83002,-172.96097,0.01599,0.19269,1.01245,,-0.28230,0.59492,0.31936,0.68146,
87.04688,4.46365,-4.90479,-173.11050,0.01880,0.19391,1.01556,,-0.27433,0.59118,0.32663,0.68452,
87.05469,4.41132,-4.89731,-173.10303,0.02966,0.19507,1.01062,,-0.26631,0.58735,0.33386,0.68749,
87.06250,4.44122,-4.50104,-172.92358,0.00897,0.19385,1.01825,,-0.25828,0.58342,0.34102,0.69037,
87.07031,4.29169,-4.94217,-173.18527,0.02893,0.19562,1.01678,,-0.25018,0.57944,0.34815,0.69315,
87.07813,4.27673,-4.85245,-173.10303,0.02197,0.19324,1.01184,,-0.24205,0.57537,0.35522,0.69583,
87.08594,4.40384,-4.75525,-173.06564,0.00702,0.19189,1.01794,,-0.23389,0.57122,0.36224,0.69842,
87.09375,4.40384,-4.73282,-173.13293,0.02643,0.19232,1.00964,,-0.22570,0.56698,0.36921,0.70091,
87.10156,4.40384,-4.64310,-173.05069,0.01477,0.19141,1.01270,,-0.21748,0.56267,0.37612,0.70331,
87.10938,4.41879,-4.77020,-173.17780,0.02039,0.19244,1.01947,,-0.20921,0.55828,0.38299,0.70560,
87.11719,4.28421,-4.71786,-173.00583,0.01990,0.19165,1.00861,,-0.20092,0.55381,0.38979,0.70780,
87.12500,4.40384,-4.58328,-173.02078,0.01013,0.19214,1.01593,,-0.19261,0.54926,0.39653,0.70991,
87.13281,4.42627,-4.94965,-173.22266,0.02911,0.19354,1.01288,,-0.18426,0.54465,0.40323,0.71190,
87.14063,4.37393,-4.77020,-172.99088,0.01178,0.19342,1.01520,,-0.17588,0.53996,0.40986,0.71380,
87.14844,4.42627,-4.97955,-173.17780,0.02808,0.19470,1.01685,,-0.16747,0.53520,0.41645,0.71560,
87.15625,4.33655,-4.80011,-173.11798,0.02594,0.19214,1.00775,,-0.15904,0.53037,0.42296,0.71730,
87.16406,4.45618,-4.53094,-172.90863,0.00598,0.19391,1.02026,,-0.15061,0.52545,0.42941,0.71891,
87.17188,4.37393,-4.89731,-173.13293,0.02991,0.19403,1.00964,,-0.14213,0.52047,0.43581,0.72040,
87.17969,4.32159,-4.61319,-172.97592,0.01733,0.19073,1.00873,,-0.13365,0.51541,0.44213,0.72181,
87.18750,4.34402,-4.63562,-173.04321,0.01544,0.19373,1.02124,,-0.12514,0.51028,0.44839,0.72312,
87.19531,4.33655,-4.68796,-173.07312,0.02155,0.19122,1.00946,,-0.11661,0.50508,0.45459,0.72432,
87.20313,4.30664,-4.68048,-172.93106,0.01019,0.19196,1.01636,,-0.10806,0.49981,0.46072,0.72543,
87.21094,4.36646,-4.88235,-173.19275,0.02759,0.19330,1.01361,,-0.09949,0.49448,0.46680,0.72642,
87.21875,4.39636,-4.62067,-173.01331,0.01398,0.19275,1.01221,,-0.09091,0.48908,0.47280,0.72732,
87.22656,4.50851,-4.56085,-173.05817,0.00690,0.19330,1.02051,,-0.08233,0.48360,0.47874,0.72812,
87.23438,4.41132,-4.85245,-173.03574,0.02765,0.19287,1.00964,,-0.07372,0.47807,0.48461,0.72881,
87.24219,4.51599,-4.61319,-173.04321,0.00653,0.19226,1.02087,,-0.06510,0.47246,0.49042,0.72941,
87.25000,4.42627,-4.66553,-173.14789,0.01630,0.19281,1.02002,,-0.05647,0.46679,0.49615,0.72990,
87.25781,4.31412,-4.67300,-173.00583,0.01776,0.19232,1.00830,,-0.04784,0.46106,0.50180,0.73029,
87.26563,4.44870,-4.62814,-173.11798,0.01184,0.19305,1.01990,,-0.03919,0.45526,0.50739,0.73058,
87.27344,4.38889,-4.88235,-173.17032,0.02795,0.19220,1.01440,,-0.03052,0.44941,0.51291,0.73077,
87.28125,4.37393,-4.61319,-172.90863,0.01263,0.19086,1.01123,,-0.02188,0.44350,0.51835,0.73086,
87.28906,4.33655,-4.85992,-173.21518,0.02448,0.19354,1.01508,,-0.01320,0.43752,0.52371,0.73084,
87.29688,4.39636,-4.92722,-173.04321,0.02783,0.19135,1.01233,,-0.00452,0.43150,0.52901,0.73071,
87.30469,4.45618,-4.61319,-173.00583,0.00739,0.19263,1.01733,,0.00414,0.42540,0.53423,0.73049,
87.31250,4.33655,-4.99451,-173.18527,0.02948,0.19165,1.01093,,0.01283,0.41926,0.53937,0.73016,
87.32031,4.50851,-4.53094,-172.88620,0.01013,0.19141,1.01862,,0.02148,0.41305,0.54444,0.72974,
87.32813,4.40384,-4.71039,-173.18527,0.01306,0.19318,1.01910,,0.03015,0.40678,0.54943,0.72921,
87.33594,4.38141,-4.69543,-173.06564,0.02380,0.19165,1.01154,,0.03882,0.40046,0.55434,0.72858,
87.34375,4.48608,-4.70291,-173.02078,0.00818,0.19287,1.01959,,0.04748,0.39409,0.55917,0.72785,
87.35156,4.49356,-4.98703,-173.26004,0.02509,0.19354,1.01453,,0.05615,0.38767,0.56393,0.72701,
87.35938,4.38889,-4.64310,-173.08060,0.01556,0.19189,1.01208,,0.06480,0.38119,0.56861,0.72608,
87.36719,4.35898,-4.81506,-173.17780,0.02045,0.19220,1.01788,,0.07345,0.37466,0.57320,0.72504,
87.37500,4.32907,-4.90479,-173.11798,0.02875,0.19110,1.01105,,0.08210,0.36808,0.57770,0.72390,
87.38281,4.38141,-4.55338,-173.08807,0.00793,0.18896,1.01575,,0.09072,0.36144,0.58213,0.72267,
87.39063,4.38889,-4.97955,-173.17780,0.03070,0.19104,1.01477,,0.09935,0.35477,0.58648,0.72132,
87.39844,4.27673,-4.81506,-173.11050,0.02209,0.18964,1.01166,,0.10796,0.34805,0.59074,0.71988,
87.40625,4.47861,-4.70291,-173.08060,0.00861,0.19122,1.01764,,0.11654,0.34128,0.59492,0.71834,
87.41406,4.41132,-4.85992,-173.20770,0.02551,0.19238,1.01141,,0.12513,0.33446,0.59902,0.71670,
87.42188,4.43375,-4.66553,-173.03574,0.01422,0.19153,1.01440,,0.13368,0.32759,0.60304,0.71495,
87.42969,4.26178,-4.91226,-173.23013,0.02148,0.19244,1.01599,,0.14224,0.32069,0.60696,0.71311,
87.43750,4.36646,-4.70291,-173.14041,0.01825,0.18994,1.01379,,0.15076,0.31374,0.61080,0.71117,
87.44531,4.38141,-4.59076,-173.08060,0.00677,0.18994,1.01776,,0.15926,0.30674,0.61455,0.70914,
87.45313,4.43375,-4.98703,-173.28247,0.02972,0.19214,1.01587,,0.16776,0.29971,0.61822,0.70699,
87.46094,4.32159,-4.59076,-173.06564,0.01154,0.18994,1.01471,,0.17621,0.29263,0.62180,0.70476,
87.46875,4.32907,-4.79263,-173.23013,0.01178,0.19098,1.01617,,0.18466,0.28551,0.62529,0.70242,
87.47656,4.32907,-4.71786,-173.13293,0.02484,0.18982,1.01459,,0.19308,0.27836,0.62870,0.69998,
87.48438,4.34402,-4.53094,-173.05069,0.00830,0.19049,1.01642,,0.20145,0.27117,0.63201,0.69746,
87.49219,4.39636,-4.94217,-173.20023,0.02466,0.19019,1.01440,,0.20983,0.26395,0.63524,0.69482,
87.50000,4.33655,-4.69543,-173.05069,0.01831,0.19019,1.01428,,0.21816,0.25670,0.63837,0.69210,
87.50781,4.32907,-4.73282,-173.23761,0.01868,0.19073,1.01544,,0.22647,0.24940,0.64142,0.68927,
87.51563,4.38889,-4.77020,-173.05069,0.02325,0.18976,1.01495,,0.23474,0.24208,0.64437,0.68635,
87.52344,4.42627,-4.68796,-172.91611,0.01056,0.18970,1.01532,,0.24297,0.23473,0.64724,0.68333,
87.53125,4.41132,-4.88983,-173.17780,0.03027,0.19135,1.01392,,0.25119,0.22735,0.65002,0.68021,
87.53906,4.39636,-4.71039,-172.98340,0.01392,0.19061,1.01135,,0.25936,0.21994,0.65270,0.67701,
87.54688,4.41132,-4.73282,-173.06564,0.00897,0.19110,1.01447,,0.26750,0.21250,0.65529,0.67370,
87.55469,4.31412,-4.95712,-173.20770,0.02930,0.19250,1.01611,,0.27563,0.20503,0.65779,0.67030,
87.56250,4.30664,-4.69543,-173.04321,0.00867,0.19006,1.01544,,0.28369,0.19753,0.66019,0.66682,
87.57031,4.48608,-4.88983,-173.13293,0.02240,0.18982,1.01227,,0.29173,0.19002,0.66251,0.66322,
87.57813,4.35898,-4.74777,-172.96097,0.02032,0.19098,1.01538,,0.29971,0.18248,0.66473,0.65955,
87.58594,4.32907,-4.71786,-173.12546,0.01569,0.19049,1.01703,,0.30767,0.17491,0.66686,0.65578,
87.59375,4.32907,-5.01694,-173.03574,0.03223,0.19165,1.01434,,0.31559,0.16733,0.66889,0.65192,
87.60156,4.31412,-4.58328,-172.94601,0.01233,0.19153,1.01294,,0.32344,0.15972,0.67083,0.64797,
87.60938,4.38889,-4.80759,-173.26752,0.02814,0.19122,1.01318,,0.33127,0.15208,0.67268,0.64392,
87.61719,4.40384,-4.73282,-173.09555,0.02716,0.19086,1.01624,,0.33905,0.14443,0.67443,0.63979,
87.62500,4.25430,-4.65805,-173.12546,0.00818,0.19061,1.01398,,0.34678,0.13675,0.67609,0.63557,
87.63281,4.31412,-4.94965,-173.24509,0.03082,0.19025,1.01495,,0.35448,0.12906,0.67765,0.63125,
87.64063,4.38889,-4.65057,-173.14041,0.01978,0.19183,1.01526,,0.36212,0.12136,0.67912,0.62685,
87.64844,4.31412,-4.80759,-173.26752,0.01740,0.19073,1.01300,,0.36972,0.11363,0.68050,0.62235,
87.65625,4.29169,-4.75525,-173.18527,0.02271,0.19025,1.01758,,0.37726,0.10589,0.68177,0.61778,
87.66406,4.18701,-4.70291,-173.09555,0.01294,0.18970,1.01227,,0.38475,0.09814,0.68295,0.61312,
87.67188,4.36646,-4.97955,-173.26752,0.02985,0.19061,1.01221,,0.39220,0.09039,0.68404,0.60836,
87.67969,4.24683,-4.56085,-173.09555,0.01801,0.18903,1.01459,,0.39957,0.08262,0.68503,0.60353,
87.68750,4.40384,-4.79263,-173.31985,0.02649,0.18994,1.01196,,0.40691,0.07483,0.68593,0.59860,
87.69531,4.38141,-4.97955,-173.12546,0.03119,0.19159,1.01630,,0.41419,0.06706,0.68672,0.59359,
87.70313,4.26178,-4.66553,-173.00583,0.01135,0.18903,1.01367,,0.42140,0.05927,0.68743,0.58851,
87.71094,4.32159,-4.92722,-173.11798,0.03314,0.19043,1.01813,,0.42857,0.05148,0.68803,0.58334,
87.71875,4.35150,-4.73282,-172.99088,0.02423,0.18994,1.01917,,0.43567,0.04368,0.68855,0.57809,
87.72656,4.25430,-4.80759,-173.08060,0.01587,0.18951,1.01648,,0.44271,0.03588,0.68896,0.57276,
87.73438,4.44122,-4.85992,-173.00583,0.02594,0.19019,1.01813,,0.44969,0.02808,0.68928,0.56735,
87.74219,4.40384,-4.69543,-172.84134,0.01709,0.18909,1.01208,,0.45660,0.02028,0.68951,0.56186,
87.75000,4.33655,-4.90479,-173.07312,0.03052,0.18903,1.01312,,0.46346,0.01248,0.68964,0.55628,
87.75781,4.37393,-4.70291,-172.87125,0.01904,0.19037,1.01740,,0.47024,0.00468,0.68967,0.55064,
87.76563,4.37393,-4.71039,-173.01331,0.01105,0.18970,1.01160,,0.47697,-0.00313,0.68962,0.54491,
87.77344,4.39636,-5.05432,-173.11798,0.03320,0.19061,1.01770,,0.48365,-0.01092,0.68945,0.53910,
87.78125,4.22440,-4.71039,-172.79648,0.01318,0.18915,1.01563,,0.49023,-0.01872,0.68919,0.53323,
87.78906,4.36646,-4.80011,-173.02078,0.01819,0.18958,1.01361,,0.49676,-0.02651,0.68885,0.52727,
87.79688,4.34402,-4.74030,-172.91611,0.02704,0.19073,1.01984,,0.50322,-0.03429,0.68840,0.52125,
87.80469,4.17953,-4.71039,-172.93854,0.01086,0.18958,1.00928,,0.50960,-0.04208,0.68786,0.51515,
87.81250,4.35898,-4.95712,-173.03574,0.02936,0.19055,1.01129,,0.51594,-0.04984,0.68722,0.50898,
87.82031,4.26926,-4.74030,-172.79648,0.01874,0.18915,1.01617,,0.52218,-0.05760,0.68649,0.50274,
87.82813,4.41132,-4.83749,-173.07312,0.02509,0.19080,1.00995,,0.52836,-0.06535,0.68566,0.49642,
87.83594,4.47113,-4.86740,-173.05069,0.03290,0.19159,1.01923,,0.53448,-0.07309,0.68474,0.49002,
87.84375,4.30664,-4.65805,-172.92358,0.01282,0.18945,1.01422,,0.54051,-0.08082,0.68373,0.48357,
87.85156,4.32159,-4.91974,-173.07312,0.03430,0.19183,1.01697,,0.54648,-0.08853,0.68261,0.47704,
87.85938,4.32907,-4.64310,-172.93106,0.02533,0.18951,1.02203,,0.55235,-0.09624,0.68141,0.47045,
87.86719,4.21692,-4.62814,-173.02078,0.01392,0.18964,1.01086,,0.55816,-0.10393,0.68011,0.46380,
87.87500,4.51599,-4.76273,-173.03574,0.02832,0.19110,1.01825,,0.56389,-0.11160,0.67872,0.45706,
87.88281,4.20944,-4.74030,-172.86377,0.01184,0.18951,1.00922,,0.56954,-0.11925,0.67723,0.45028,
87.89063,4.29916,-4.99451,-173.09555,0.02771,0.19025,1.01111,,0.57513,-0.12688,0.67564,0.44343,
87.89844,4.32907,-4.64310,-172.87125,0.02161,0.19220,1.01819,,0.58062,-0.13450,0.67397,0.43652,
87.90625,4.31412,-4.81506,-173.02078,0.02106,0.19061,1.01044,,0.58605,-0.14209,0.67220,0.42954,
87.91406,4.30664,-4.96460,-173.02826,0.03418,0.19110,1.01678,,0.59140,-0.14966,0.67033,0.42250,
87.92188,4.26926,-4.71786,-172.84882,0.01514,0.19031,1.01312,,0.59665,-0.15721,0.66838,0.41541,
87.92969,4.34402,-4.79263,-173.08807,0.03247,0.19202,1.01123,,0.60183,-0.16474,0.66634,0.40825,
87.93750,4.39636,-4.77768,-172.96097,0.02728,0.19250,1.02087,,0.60692,-0.17223,0.66420,0.40103,
87.94531,4.28421,-4.63562,-172.87872,0.01416,0.19006,1.01117,,0.61192,-0.17971,0.66198,0.39376,
87.95313,4.51599,-4.99451,-172.98340,0.03162,0.19299,1.01813,,0.61686,-0.18714,0.65965,0.38642,
87.96094,4.40384,-4.80011,-172.90115,0.02216,0.19153,1.01984,,0.62170,-0.19455,0.65724,0.37904,
87.96875,4.27673,-4.89731,-172.93106,0.02344,0.19086,1.00940,,0.62646,-0.20194,0.65473,0.37161,
87.97656,4.32907,-4.78516,-172.91611,0.02441,0.19171,1.02124,,0.63113,-0.20930,0.65214,0.36412,
87.98438,4.25430,-4.80011,-172.73666,0.01501,0.19153,1.01453,,0.63571,-0.21662,0.64946,0.35659,
87.99219,4.24683,-4.98703,-172.94601,0.03406,0.19293,1.01459,,0.64021,-0.22392,0.64668,0.34900,
88.00000,4.34402,-4.80759,-172.90863,0.01788,0.19299,1.01520,,0.64462,-0.23118,0.64381,0.34136,
88.00781,4.23187,-4.71039,-172.93854,0.01306,0.19073,1.00891,,0.64893,-0.23841,0.64087,0.33367,
88.01563,4.38889,-4.80759,-172.96844,0.02991,0.19312,1.01788,,0.65316,-0.24560,0.63783,0.32593,
88.02344,4.23935,-4.76273,-172.84882,0.01245,0.19031,1.01294,,0.65730,-0.25276,0.63470,0.31815,
88.03125,4.27673,-4.76273,-172.93854,0.02454,0.19128,1.01019,,0.66135,-0.25989,0.63149,0.31032,
88.03906,4.26926,-4.77020,-172.94601,0.02313,0.19452,1.01978,,0.66530,-0.26697,0.62819,0.30245,
88.04688,4.23935,-4.79263,-173.05817,0.02100,0.19159,1.01044,,0.66917,-0.27403,0.62480,0.29453,
88.05469,4.40384,-4.85245,-172.99835,0.03333,0.19342,1.01453,,0.67295,-0.28103,0.62132,0.28656,
88.06250,4.37393,-4.74030,-172.87872,0.01788,0.19238,1.01593,,0.67663,-0.28799,0.61777,0.27855,
88.07031,4.35150,-4.94217,-173.08807,0.03247,0.19196,1.00983,,0.68023,-0.29492,0.61412,0.27050,
88.07813,4.33655,-4.83749,-172.97592,0.02032,0.19238,1.01666,,0.68373,-0.30180,0.61039,0.26242,
88.08594,4.18701,-4.78516,-172.93854,0.01263,0.19202,1.01239,,0.68712,-0.30864,0.60657,0.25430,
88.09375,4.38141,-4.81506,-173.07312,0.03290,0.19208,1.01605,,0.69043,-0.31544,0.60268,0.24614,
88.10156,4.32159,-4.68796,-172.92358,0.01434,0.19171,1.01318,,0.69364,-0.32218,0.59870,0.23794,
88.10938,4.31412,-4.84497,-172.97592,0.02191,0.19214,1.01160,,0.69676,-0.32889,0.59464,0.22971,
88.11719,4.34402,-4.79263,-172.85629,0.02533,0.19409,1.02020,,0.69978,-0.33554,0.59050,0.22145,
88.12500,4.21692,-4.77020,-173.04321,0.01782,0.19177,1.01276,,0.70270,-0.34215,0.58627,0.21315,
88.13281,4.34402,-4.93469,-173.04321,0.03345,0.19305,1.00818,,0.70553,-0.34871,0.58196,0.20482,
88.14063,4.32907,-4.78516,-172.84134,0.01947,0.19232,1.01587,,0.70826,-0.35521,0.57758,0.19647,
88.14844,4.31412,-4.83002,-172.95349,0.02991,0.19269,1.01263,,0.71089,-0.36167,0.57312,0.18808,
88.15625,4.25430,-4.78516,-172.98340,0.03076,0.19214,1.01746,,0.71342,-0.36808,0.56857,0.17967,
88.16406,4.30664,-4.76273,-172.81891,0.01416,0.19238,1.01459,,0.71585,-0.37442,0.56396,0.17123,
88.17188,4.39636,-4.80011,-173.01331,0.03540,0.19354,1.01660,,0.71819,-0.38072,0.55926,0.16276,
88.17969,4.35898,-4.74777,-172.87125,0.02405,0.19531,1.01935,,0.72042,-0.38696,0.55449,0.15427,
88.18750,4.38889,-4.73282,-172.97592,0.01886,0.19330,1.01361,,0.72255,-0.39315,0.54965,0.14575,
88.19531,4.32907,-4.80759,-172.87872,0.02783,0.19324,1.01953,,0.72459,-0.39928,0.54472,0.13721,
88.20313,4.38889,-4.80759,-172.81143,0.01813,0.19397,1.01489,,0.72653,-0.40534,0.53973,0.12866,
88.21094,4.20944,-4.91974,-172.96097,0.03094,0.19299,1.01001,,0.72836,-0.41137,0.53465,0.12009,
88.21875,4.33655,-4.73282,-172.76657,0.02148,0.19330,1.01819,,0.73009,-0.41732,0.52951,0.11150,
88.22656,4.24683,-4.77020,-172.84134,0.01447,0.19171,1.01477,,0.73172,-0.42322,0.52429,0.10289,
88.23438,4.44122,-4.86740,-172.93854,0.03253,0.19385,1.01758,,0.73326,-0.42905,0.51900,0.09426,
88.24219,4.30664,-4.70291,-172.79648,0.01428,0.19373,1.01233,,0.73468,-0.43483,0.51365,0.08562,
88.25000,4.47861,-4.85992,-172.90115,0.03265,0.19476,1.01166,,0.73602,-0.44054,0.50821,0.07696,
88.25781,4.36646,-4.65057,-172.82639,0.02594,0.19421,1.01941,,0.73724,-0.44619,0.50272,0.06829,
88.26563,4.28421,-4.78516,-172.78900,0.01526,0.19391,1.01251,,0.73836,-0.45177,0.49716,0.05961,
88.27344,4.35150,-4.85992,-172.93854,0.02771,0.19531,1.01660,,0.73939,-0.45730,0.49152,0.05092,
88.28125,4.21692,-4.78516,-172.70676,0.01910,0.19446,1.01593,,0.74030,-0.46276,0.48582,0.04223,
88.28906,4.20944,-4.84497,-172.88620,0.02631,0.19452,1.01245,,0.74112,-0.46816,0.48005,0.03353,
88.29688,4.29916,-4.70291,-172.90863,0.02155,0.19427,1.01709,,0.74183,-0.47349,0.47422,0.02481,
88.30469,4.32907,-4.85992,-172.87872,0.01453,0.19427,1.01581,,0.74244,-0.47876,0.46832,0.01610,
88.31250,4.31412,-5.00946,-172.96097,0.03436,0.19415,1.01385,,0.74295,-0.48395,0.46234,0.00738,
88.32031,4.33655,-4.87488,-172.93106,0.01550,0.19507,1.01465,,0.74336,-0.48908,0.45631,-0.00135,
88.32813,4.35898,-4.76273,-172.93106,0.01721,0.19452,1.01410,,0.74366,-0.49414,0.45022,-0.01008,
88.33594,4.42627,-4.74030,-172.91611,0.02673,0.19629,1.01508,,0.74386,-0.49912,0.44407,-0.01882,
88.34375,4.32159,-4.84497,-172.89368,0.01318,0.19470,1.01257,,0.74395,-0.50404,0.43786,-0.02755,
88.35156,4.32907,-4.88235,-173.05817,0.02887,0.19482,1.01227,,0.74395,-0.50889,0.43158,-0.03628,
88.35938,4.37393,-4.80759,-172.78152,0.02051,0.19489,1.01392,,0.74384,-0.51366,0.42525,-0.04500,
88.36719,4.32159,-4.90479,-173.00583,0.02252,0.19427,1.01489,,0.74362,-0.51836,0.41886,-0.05372,
88.37500,4.41879,-4.84497,-173.06564,0.03387,0.19611,1.01477,,0.74331,-0.52299,0.41240,-0.06245,
88.38281,4.33655,-4.80759,-172.73666,0.01422,0.19623,1.01318,,0.74288,-0.52754,0.40591,-0.07115,
88.39063,4.35150,-4.98703,-172.99088,0.03271,0.19556,1.01288,,0.74236,-0.53202,0.39934,-0.07985,
88.39844,4.38141,-4.80759,-172.89368,0.02631,0.19452,1.01520,,0.74173,-0.53643,0.39273,-0.08854,
88.40625,4.32159,-4.72534,-172.88620,0.01227,0.19501,1.01508,,0.74100,-0.54076,0.38607,-0.09722,
88.41406,4.31412,-4.79263,-172.96844,0.02814,0.19531,1.01428,,0.74016,-0.54501,0.37935,-0.10590,
88.42188,4.29169,-4.76273,-172.93854,0.01978,0.19617,1.01398,,0.73922,-0.54919,0.37259,-0.11456,
88.42969,4.26178,-4.78516,-173.04321,0.02307,0.19562,1.01422,,0.73817,-0.55330,0.36577,-0.12321,
88.43750,4.38889,-4.80759,-172.96097,0.02106,0.19440,1.01349,,0.73703,-0.55732,0.35890,-0.13184,
88.44531,4.35898,-4.75525,-172.99088,0.01831,0.19458,1.01550,,0.73578,-0.56126,0.35198,-0.14046,
88.45313,4.28421,-4.97955,-173.05069,0.03162,0.19647,1.01318,,0.73443,-0.56513,0.34500,-0.14905,
88.46094,4.29916,-4.81506,-172.98340,0.01605,0.19458,1.01587,,0.73297,-0.56892,0.33799,-0.15763,
88.46875,4.35150,-4.93469,-173.08807,0.03009,0.19562,1.01208,,0.73141,-0.57263,0.33092,-0.16619,
88.47656,4.34402,-4.81506,-173.02078,0.02789,0.19464,1.01282,,0.72975,-0.57626,0.32381,-0.17474,
88.48438,4.33655,-4.87488,-172.85629,0.01306,0.19507,1.01587,,0.72799,-0.57980,0.31667,-0.18324,
88.49219,4.33655,-4.80759,-173.08807,0.03253,0.19580,1.01324,,0.72613,-0.58327,0.30947,-0.19174,
88.50000,4.29169,-4.77020,-172.92358,0.02118,0.19397,1.01367,,0.72416,-0.58665,0.30224,-0.20021,
88.50781,4.34402,-4.93469,-173.01331,0.01892,0.19635,1.01636,,0.72210,-0.58995,0.29496,-0.20865,
88.51563,4.35150,-4.78516,-172.88620,0.02362,0.19580,1.01276,,0.71993,-0.59316,0.28765,-0.21706,
88.52344,4.29169,-4.83002,-172.84134,0.01538,0.19476,1.01361,,0.71766,-0.59629,0.28031,-0.22544,
88.53125,4.32159,-4.91974,-172.91611,0.03198,0.19501,1.01361,,0.71530,-0.59934,0.27292,-0.23379,
88.53906,4.31412,-4.73282,-172.84134,0.01776,0.19507,1.01318,,0.71283,-0.60230,0.26550,-0.24211,
88.54688,4.41879,-4.80759,-172.94601,0.01105,0.19586,1.01703,,0.71026,-0.60518,0.25804,-0.25040,
88.55469,4.30664,-4.97208,-172.92358,0.03137,0.19543,1.01343,,0.70759,-0.60798,0.25054,-0.25866,
88.56250,4.38141,-4.80759,-172.72919,0.01184,0.19702,1.01825,,0.70483,-0.61068,0.24302,-0.26687,
88.57031,4.35150,-4.82254,-172.91611,0.02014,0.19495,1.01758,,0.70197,-0.61330,0.23546,-0.27506,
88.57813,4.26178,-4.77020,-172.84882,0.02301,0.19470,1.01117,,0.69900,-0.61584,0.22788,-0.28321,
88.58594,4.28421,-4.77020,-172.78152,0.01459,0.19666,1.02014,,0.69594,-0.61829,0.22027,-0.29132,
88.59375,4.25430,-4.93469,-172.92358,0.03076,0.19476,1.01361,,0.69278,-0.62066,0.21262,-0.29940,
88.60156,4.38889,-4.77020,-172.76657,0.01569,0.19623,1.01410,,0.68952,-0.62293,0.20495,-0.30743,
88.60938,4.20944,-4.94217,-172.98340,0.02667,0.19690,1.01324,,0.68616,-0.62513,0.19723,-0.31542,
88.61719,4.36646,-4.80759,-172.86377,0.01764,0.19409,1.01147,,0.68272,-0.62723,0.18951,-0.32337,
88.62500,4.42627,-4.76273,-172.83386,0.01074,0.19702,1.02179,,0.67917,-0.62924,0.18176,-0.33128,
88.63281,4.32907,-4.87488,-172.98340,0.03046,0.19562,1.00983,,0.67553,-0.63116,0.17397,-0.33915,
88.64063,4.30664,-4.80759,-172.85629,0.01135,0.19611,1.01624,,0.67179,-0.63300,0.16617,-0.34697,
88.64844,4.32159,-4.77768,-172.99835,0.01422,0.19604,1.01788,,0.66796,-0.63475,0.15835,-0.35475,
88.65625,4.27673,-4.82254,-172.98340,0.02368,0.19580,1.01141,,0.66403,-0.63641,0.15050,-0.36248,
88.66406,4.26178,-4.85245,-172.97592,0.00879,0.19702,1.01929,,0.66001,-0.63799,0.14264,-0.37016,
88.67188,4.21692,-5.06180,-173.07312,0.02698,0.19647,1.01257,,0.65589,-0.63948,0.13474,-0.37778,
88.67969,4.33655,-4.79263,-173.01331,0.01654,0.19568,1.01208,,0.65168,-0.64087,0.12684,-0.38536,
88.68750,4.33655,-4.87488,-173.11050,0.02142,0.19641,1.01685,,0.64738,-0.64218,0.11891,-0.39290,
88.69531,4.32907,-4.98703,-173.08060,0.03082,0.19757,1.01031,,0.64299,-0.64340,0.11097,-0.40037,
88.70313,4.36646,-4.77020,-172.96844,0.00952,0.19543,1.01807,,0.63851,-0.64452,0.10302,-0.40779,
88.71094,4.32159,-5.03937,-173.11798,0.03064,0.19592,1.01202,,0.63393,-0.64556,0.09505,-0.41515,
88.71875,4.35150,-4.83749,-172.96844,0.02386,0.19617,1.01190,,0.62927,-0.64650,0.08708,-0.42246,
88.72656,4.44870,-4.91974,-173.07312,0.01129,0.19617,1.01978,,0.62453,-0.64735,0.07908,-0.42971,
88.73438,4.22440,-4.82254,-173.05817,0.02515,0.19501,1.00909,,0.61968,-0.64811,0.07109,-0.43691,
88.74219,4.34402,-4.81506,-172.94601,0.01605,0.19537,1.01239,,0.61476,-0.64878,0.06309,-0.44404,
88.75000,4.32159,-5.02441,-173.08060,0.02460,0.19543,1.01563,,0.60974,-0.64937,0.05507,-0.45111,
88.75781,4.35150,-4.75525,-172.88620,0.01807,0.19421,1.01257,,0.60465,-0.64985,0.04707,-0.45812,
88.76563,4.44870,-4.82254,-172.94601,0.01074,0.19568,1.01996,,0.59947,-0.65024,0.03905,-0.46507,
88.77344,4.38141,-4.98703,-173.09555,0.03070,0.19415,1.01135,,0.59420,-0.65055,0.03102,-0.47196,
88.78125,4.41132,-4.73282,-172.92358,0.01184,0.19458,1.01813,,0.58885,-0.65076,0.02300,-0.47878,
88.78906,4.32159,-4.71039,-172.95349,0.01141,0.19598,1.02020,,0.58342,-0.65088,0.01498,-0.48554,
88.79688,4.32907,-4.94965,-172.90863,0.02460,0.19446,1.00964,,0.57790,-0.65092,0.00695,-0.49223,
88.80469,4.33655,-4.82254,-172.90863,0.00714,0.19385,1.01849,,0.57230,-0.65086,-0.00107,-0.49885,
88.81250,4.21692,-4.77768,-172.92358,0.02814,0.19427,1.00964,,0.56662,-0.65072,-0.00909,-0.50540,
88.82031,4.27673,-4.77768,-172.94601,0.01746,0.19489,1.01215,,0.56085,-0.65048,-0.01710,-0.51189,
88.82813,4.41132,-4.96460,-173.09555,0.01740,0.19586,1.01581,,0.55501,-0.65015,-0.02513,-0.51830,
88.83594,4.30664,-4.77020,-172.99835,0.01923,0.19427,1.01227,,0.54909,-0.64973,-0.03314,-0.52465,
88.84375,4.35898,-4.77020,-172.91611,0.01019,0.19446,1.01794,,0.54309,-0.64921,-0.04114,-0.53093,
88.85156,4.32907,-4.94217,-173.07312,0.02936,0.19519,1.01276,,0.53701,-0.64862,-0.04914,-0.53713,
88.85938,4.41132,-4.80011,-172.90115,0.01154,0.19391,1.01605,,0.53086,-0.64792,-0.05713,-0.54325,
88.86719,4.33655,-4.73282,-173.01331,0.00848,0.19458,1.02075,,0.52464,-0.64713,-0.06510,-0.54931,
88.87500,4.32907,-4.99451,-173.11798,0.02576,0.19531,1.00989,,0.51833,-0.64626,-0.07308,-0.55528,
88.88281,4.37393,-4.72534,-172.98340,0.00806,0.19623,1.02045,,0.51195,-0.64529,-0.08104,-0.56119,
88.89063,4.43375,-5.02441,-173.11798,0.02124,0.19513,1.01758,,0.50550,-0.64424,-0.08899,-0.56701,
88.89844,4.35150,-4.76273,-173.05817,0.01813,0.19397,1.01086,,0.49898,-0.64310,-0.09692,-0.57276,
88.90625,4.39636,-4.77020,-173.14041,0.01489,0.19562,1.01880,,0.49238,-0.64186,-0.10484,-0.57843,
88.91406,4.43375,-5.12909,-173.26004,0.03094,0.19397,1.01215,,0.48571,-0.64054,-0.11277,-0.58402,
88.92188,4.47861,-4.88983,-173.04321,0.01074,0.19409,1.01648,,0.47898,-0.63913,-0.12066,-0.58952,
88.92969,4.40384,-5.09171,-173.16284,0.02655,0.19586,1.01312,,0.47217,-0.63763,-0.12853,-0.59494,
88.93750,4.36646,-4.92722,-173.09555,0.02502,0.19324,1.01038,,0.46530,-0.63604,-0.13638,-0.60028,
88.94531,4.40384,-4.65057,-173.00583,0.00800,0.19427,1.01929,,0.45837,-0.63436,-0.14420,-0.60555,
88.95313,4.31412,-4.90479,-173.03574,0.02997,0.19409,1.00922,,0.45137,-0.63259,-0.15200,-0.61073,
88.96094,4.38889,-4.81506,-172.92358,0.01758,0.19336,1.01318,,0.44431,-0.63074,-0.15978,-0.61582,
88.96875,4.34402,-4.86740,-173.12546,0.01508,0.19495,1.01984,,0.43718,-0.62879,-0.16753,-0.62083,
88.97656,4.32907,-4.72534,-172.97592,0.02289,0.19385,1.01117,,0.42999,-0.62676,-0.17525,-0.62576,
88.98438,4.31412,-4.77768,-172.92358,0.01123,0.19189,1.01691,,0.42274,-0.62464,-0.18295,-0.63059,
88.99219,4.27673,-4.85992,-173.17780,0.02759,0.19385,1.01306,,0.41541,-0.62244,-0.19062,-0.63535,
89.00000,4.35898,-4.65805,-172.98340,0.01385,0.19513,1.01392,,0.40804,-0.62014,-0.19826,-0.64002,
89.00781,4.41879,-5.00198,-173.14041,0.02283,0.19531,1.01361,,0.40061,-0.61776,-0.20589,-0.64459,
89.01563,4.42627,-4.95712,-173.08060,0.02588,0.19440,1.00946,,0.39312,-0.61530,-0.21348,-0.64906,
89.02344,4.38141,-4.74030,-172.99835,0.00775,0.19507,1.01886,,0.38558,-0.61275,-0.22104,-0.65346,
89.03125,4.30664,-5.09918,-173.08060,0.02942,0.19318,1.01080,,0.37797,-0.61013,-0.22856,-0.65776,
89.03906,4.29916,-4.89731,-172.99835,0.01971,0.19263,1.01373,,0.37031,-0.60741,-0.23605,-0.66197,
89.04688,4.44870,-4.82254,-173.07312,0.01068,0.19403,1.01782,,0.36260,-0.60461,-0.24350,-0.66609,
89.05469,4.36646,-4.84497,-173.10303,0.02380,0.19257,1.01221,,0.35484,-0.60172,-0.25092,-0.67012,
89.06250,4.39636,-4.70291,-172.96844,0.01202,0.19409,1.01434,,0.34703,-0.59874,-0.25830,-0.67406,
89.07031,4.44870,-4.97955,-173.14041,0.02411,0.19470,1.01367,,0.33917,-0.59569,-0.26565,-0.67790,
89.07813,4.43375,-4.82254,-172.90863,0.01526,0.19275,1.01465,,0.33127,-0.59256,-0.27295,-0.68164,
89.08594,4.32907,-4.70291,-173.04321,0.00769,0.19366,1.01978,,0.32331,-0.58933,-0.28021,-0.68530,
89.09375,4.32159,-4.99451,-173.17780,0.02777,0.19385,1.01086,,0.31529,-0.58604,-0.28744,-0.68886,
89.10156,4.39636,-4.82254,-172.96097,0.00861,0.19281,1.01801,,0.30724,-0.58266,-0.29462,-0.69232,
89.10938,4.37393,-4.89731,-173.07312,0.01367,0.19324,1.01923,,0.29915,-0.57920,-0.30176,-0.69569,
89.11719,4.37393,-4.89731,-173.00583,0.02222,0.19257,1.01318,,0.29101,-0.57566,-0.30885,-0.69896,
89.12500,4.38141,-4.68048,-173.00583,0.00806,0.19238,1.01740,,0.28283,-0.57203,-0.31589,-0.70214,
89.13281,4.31412,-5.07675,-173.17780,0.02716,0.19403,1.01343,,0.27460,-0.56834,-0.32290,-0.70521,
89.14063,4.32907,-4.77020,-172.95349,0.01532,0.19147,1.01495,,0.26634,-0.56456,-0.32985,-0.70819,
89.14844,4.32159,-4.94217,-173.11050,0.02020,0.19232,1.01465,,0.25803,-0.56071,-0.33676,-0.71106,
89.15625,4.36646,-4.97208,-173.07312,0.02716,0.19379,1.01154,,0.24969,-0.55678,-0.34362,-0.71384,
89.16406,4.30664,-4.79263,-172.97592,0.00757,0.19147,1.01892,,0.24132,-0.55277,-0.35043,-0.71653,
89.17188,4.53094,-5.06927,-173.14041,0.02991,0.19257,1.01099,,0.23290,-0.54869,-0.35720,-0.71910,
89.17969,4.36646,-4.90479,-173.06564,0.01001,0.19238,1.01526,,0.22446,-0.54454,-0.36391,-0.72158,
89.18750,4.38141,-4.85992,-173.14789,0.00854,0.19183,1.01678,,0.21597,-0.54030,-0.37056,-0.72396,
89.19531,4.45618,-4.91974,-173.12546,0.02393,0.19220,1.01270,,0.20746,-0.53599,-0.37717,-0.72624,
89.20313,4.43375,-4.74030,-173.04321,0.00641,0.19183,1.01563,,0.19893,-0.53159,-0.38372,-0.72842,
89.21094,4.37393,-4.94965,-173.29742,0.02368,0.19330,1.01270,,0.19034,-0.52713,-0.39022,-0.73050,
89.21875,4.36646,-4.80759,-173.07312,0.01672,0.19116,1.01587,,0.18175,-0.52260,-0.39665,-0.73248,
89.22656,4.44870,-4.93469,-173.18527,0.01685,0.19366,1.01630,,0.17312,-0.51800,-0.40304,-0.73435,
89.23438,4.38889,-5.06180,-173.19275,0.03040,0.19238,1.01465,,0.16446,-0.51333,-0.40937,-0.73611,
89.24219,4.43375,-4.71786,-173.12546,0.00983,0.19208,1.01575,,0.15578,-0.50858,-0.41563,-0.73779,
89.25000,4.43375,-5.04684,-173.34229,0.02716,0.19318,1.00989,,0.14707,-0.50377,-0.42185,-0.73935,
89.25781,4.37393,-4.88235,-173.20770,0.02356,0.19177,1.01605,,0.13834,-0.49888,-0.42799,-0.74081,
89.26563,4.38889,-4.78516,-173.21518,0.00714,0.19122,1.01556,,0.12959,-0.49392,-0.43408,-0.74218,
89.27344,4.38141,-5.04684,-173.29742,0.02850,0.19305,1.01508,,0.12082,-0.48890,-0.44010,-0.74343,
89.28125,4.44870,-4.88983,-173.09555,0.01636,0.19116,1.01526,,0.11204,-0.48382,-0.44606,-0.74458,
89.28906,4.32159,-4.91974,-173.31985,0.01770,0.19183,1.01392,,0.10323,-0.47866,-0.45196,-0.74563,
89.29688,4.35898,-4.93469,-173.15536,0.02130,0.19165,1.01715,,0.09441,-0.47344,-0.45778,-0.74657,
89.30469,4.45618,-4.75525,-173.07312,0.01062,0.19171,1.01489,,0.08559,-0.46816,-0.46355,-0.74742,
89.31250,4.41132,-5.03937,-173.35724,0.02942,0.19293,1.01178,,0.07673,-0.46281,-0.46925,-0.74815,
89.32031,4.44870,-4.80759,-173.20770,0.01227,0.19080,1.01508,,0.06787,-0.45739,-0.47488,-0.74878,
89.32813,4.48608,-4.83002,-173.19275,0.00763,0.19116,1.01343,,0.05900,-0.45192,-0.48045,-0.74931,
89.33594,4.47861,-4.97208,-173.26004,0.02740,0.19153,1.01556,,0.05012,-0.44638,-0.48595,-0.74972,
89.34375,4.34402,-4.76273,-173.08807,0.00873,0.19128,1.01514,,0.04124,-0.44078,-0.49137,-0.75005,
89.35156,4.47113,-4.99451,-173.23761,0.02087,0.19293,1.01379,,0.03234,-0.43513,-0.49673,-0.75025,
89.35938,4.30664,-4.93469,-172.99088,0.02051,0.19128,1.01617,,0.02345,-0.42942,-0.50200,-0.75036,
89.36719,4.40384,-4.88235,-173.17780,0.01569,0.19098,1.01453,,0.01454,-0.42365,-0.50721,-0.75037,
89.37500,4.43375,-4.80759,-173.02078,0.02350,0.19159,1.01685,,0.00565,-0.41782,-0.51234,-0.75027,
89.38281,4.43375,-4.77768,-172.99835,0.01147,0.19116,1.01178,,-0.00325,-0.41193,-0.51741,-0.75006,
89.39063,4.43375,-5.16647,-173.22266,0.02728,0.19116,1.01221,,-0.01217,-0.40600,-0.52240,-0.74974,
89.39844,4.34402,-4.68796,-172.94601,0.01587,0.19043,1.01483,,-0.02107,-0.40000,-0.52731,-0.74933,
89.40625,4.35898,-4.73282,-173.00583,0.00830,0.18994,1.01495,,-0.02997,-0.39395,-0.53215,-0.74882,
89.41406,4.34402,-4.88983,-173.02826,0.03052,0.19263,1.01605,,-0.03887,-0.38785,-0.53690,-0.74820,
89.42188,4.34402,-4.70291,-172.99088,0.00903,0.18884,1.01422,,-0.04776,-0.38169,-0.54159,-0.74747,
89.42969,4.52347,-4.77768,-173.15536,0.01648,0.19196,1.01416,,-0.05665,-0.37547,-0.54621,-0.74664,
89.43750,4.47113,-4.80759,-173.05069,0.02191,0.19269,1.02118,,-0.06553,-0.36921,-0.55074,-0.74570,
89.44531,4.32907,-4.79263,-172.97592,0.01038,0.19031,1.01111,,-0.07440,-0.36290,-0.55519,-0.74467,
89.45313,4.44870,-5.15900,-173.20770,0.02991,0.19281,1.01166,,-0.08328,-0.35656,-0.55957,-0.74351,
89.46094,4.47113,-4.77020,-173.10303,0.01416,0.19049,1.01276,,-0.09214,-0.35015,-0.56387,-0.74226,
89.46875,4.48608,-5.00946,-173.10303,0.02618,0.19128,1.01208,,-0.10099,-0.34371,-0.56810,-0.74090,
89.47656,4.47861,-4.92722,-173.17780,0.02899,0.19189,1.01550,,-0.10983,-0.33721,-0.57224,-0.73944,
89.48438,4.41879,-4.71786,-173.23761,0.00879,0.19171,1.01282,,-0.11865,-0.33066,-0.57630,-0.73788,
89.49219,4.59076,-5.00198,-173.20023,0.03070,0.19067,1.01727,,-0.12747,-0.32407,-0.58028,-0.73621,
89.50000,4.44870,-4.80759,-173.14789,0.02173,0.19165,1.01953,,-0.13626,-0.31744,-0.58418,-0.73444,
89.50781,4.40384,-4.87488,-173.16284,0.01514,0.18945,1.01373,,-0.14503,-0.31077,-0.58799,-0.73257,
89.51563,4.38141,-4.83749,-173.16284,0.02490,0.19159,1.01953,,-0.15379,-0.30405,-0.59172,-0.73060,
89.52344,4.38141,-4.80011,-173.02826,0.01556,0.19141,1.01331,,-0.16252,-0.29729,-0.59536,-0.72853,
89.53125,4.38889,-5.00946,-173.22266,0.02802,0.19025,1.01208,,-0.17124,-0.29050,-0.59892,-0.72635,
89.53906,4.44870,-4.76273,-173.03574,0.01862,0.19031,1.01563,,-0.17992,-0.28367,-0.60239,-0.72407,
89.54688,4.47113,-4.84497,-173.17032,0.02100,0.19116,1.01160,,-0.18859,-0.27680,-0.60579,-0.72169,
89.55469,4.50104,-5.11414,-173.18527,0.03156,0.19196,1.01917,,-0.19724,-0.26990,-0.60909,-0.71920,
89.56250,4.34402,-4.80759,-173.02078,0.01361,0.18976,1.01398,,-0.20585,-0.26296,-0.61231,-0.71663,
89.57031,4.44122,-5.03189,-173.17032,0.03302,0.19177,1.01495,,-0.21445,-0.25599,-0.61544,-0.71394,
89.57813,4.35150,-4.81506,-172.99088,0.02551,0.19196,1.01923,,-0.22300,-0.24899,-0.61848,-0.71117,
89.58594,4.41132,-4.79263,-172.97592,0.01068,0.19037,1.01001,,-0.23152,-0.24195,-0.62144,-0.70829,
89.59375,4.45618,-4.92722,-173.09555,0.02722,0.19196,1.01868,,-0.24002,-0.23488,-0.62431,-0.70531,
89.60156,4.47113,-4.81506,-173.02078,0.01801,0.19098,1.01758,,-0.24848,-0.22777,-0.62709,-0.70223,
89.60938,4.49356,-4.94965,-173.11050,0.02521,0.19073,1.01038,,-0.25692,-0.22065,-0.62979,-0.69905,
89.61719,4.44122,-4.78516,-173.01331,0.02051,0.19220,1.01947,,-0.26531,-0.21349,-0.63240,-0.69578,
89.62500,4.43375,-4.76273,-172.96844,0.01135,0.18970,1.01581,,-0.27366,-0.20630,-0.63492,-0.69241,
